timestamp_ns,wx,wy,wz,ax,ay,az
1305031906964071936,0.0,0.0,0.0,0.778306,7.627394,-5.699591
1305031906965054976,0.0,0.0,0.0,0.778306,7.627394,-5.699591
1305031906968313088,0.0,0.0,0.0,0.862123,7.531603,-5.699591
1305031906969302784,0.0,0.0,0.0,0.862123,7.531603,-5.699591
1305031906973051904,0.0,0.0,0.0,0.682514,7.627394,-5.915122
1305031906973947904,0.0,0.0,0.0,0.682514,7.627394,-5.915122
1305031906977206016,0.0,0.0,0.0,0.862123,7.818977,-5.891174
1305031906978172160,0.0,0.0,0.0,0.862123,7.818977,-5.891174
1305031906981814016,0.0,0.0,0.0,0.778306,7.914769,-5.699591
1305031906982939904,0.0,0.0,0.0,0.778306,7.914769,-5.699591
1305031906984067840,0.0,0.0,0.0,0.778306,7.914769,-5.699591
1305031906985206016,0.0,0.0,0.0,0.778306,7.914769,-5.699591
1305031906988375040,0.0,0.0,0.0,0.826201,8.010560,-5.603800
1305031906989319168,0.0,0.0,0.0,0.826201,8.010560,-5.603800
1305031906992958976,0.0,0.0,0.0,0.778306,8.010560,-5.867226
1305031906993943808,0.0,0.0,0.0,0.778306,8.010560,-5.867226
1305031906997207040,0.0,0.0,0.0,0.862123,8.010560,-5.699591
1305031906998193920,0.0,0.0,0.0,0.862123,8.010560,-5.699591
1305031907001840128,0.0,0.0,0.0,0.862123,7.962665,-5.891174
1305031907002831104,0.0,0.0,0.0,0.862123,7.962665,-5.891174
1305031907004090112,0.0,0.0,0.0,0.862123,7.962665,-5.891174
1305031907005217024,0.0,0.0,0.0,0.862123,7.962665,-5.891174
1305031907008410880,0.0,0.0,0.0,0.862123,7.962665,-5.699591
1305031907009336064,0.0,0.0,0.0,0.862123,7.962665,-5.699591
1305031907012944896,0.0,0.0,0.0,0.862123,8.010560,-5.891174
1305031907013947136,0.0,0.0,0.0,0.862123,8.010560,-5.891174
1305031907017211904,0.0,0.0,0.0,0.910019,7.914769,-5.986966
1305031907018194944,0.0,0.0,0.0,0.910019,7.914769,-5.986966
1305031907021817088,0.0,0.0,0.0,0.957915,7.818977,-6.298288
1305031907022792192,0.0,0.0,0.0,0.957915,7.818977,-6.298288
1305031907024071936,0.0,0.0,0.0,0.957915,7.818977,-6.298288
1305031907025217024,0.0,0.0,0.0,0.957915,7.818977,-6.298288
1305031907028190976,0.0,0.0,0.0,1.053706,7.627394,-5.986966
1305031907029349120,0.0,0.0,0.0,1.053706,7.627394,-5.986966
1305031907032992000,0.0,0.0,0.0,0.862123,7.675290,-6.082757
1305031907033957888,0.0,0.0,0.0,0.862123,7.675290,-6.082757
1305031907037206784,0.0,0.0,0.0,0.862123,7.627394,-6.178549
1305031907038157824,0.0,0.0,0.0,0.862123,7.627394,-6.178549
1305031907041872896,0.0,0.0,0.0,1.053706,7.603447,-6.370132
1305031907042799872,0.0,0.0,0.0,1.053706,7.603447,-6.370132
1305031907044069888,0.0,0.0,0.0,1.053706,7.603447,-6.370132
1305031907045273088,0.0,0.0,0.0,1.053706,7.603447,-6.370132
1305031907048332032,0.0,0.0,0.0,1.245289,7.627394,-6.465923
1305031907049334016,0.0,0.0,0.0,1.245289,7.627394,-6.465923
1305031907052942080,0.0,0.0,0.0,1.245289,7.579499,-6.609610
1305031907053963008,0.0,0.0,0.0,1.245289,7.579499,-6.609610
1305031907057197056,0.0,0.0,0.0,0.862123,7.627394,-6.465923
1305031907058407168,0.0,0.0,0.0,0.862123,7.627394,-6.465923
1305031907061833984,0.0,0.0,0.0,0.957915,7.627394,-6.657506
1305031907062854144,0.0,0.0,0.0,0.957915,7.627394,-6.657506
1305031907064070912,0.0,0.0,0.0,0.957915,7.627394,-6.657506
1305031907065211136,0.0,0.0,0.0,0.957915,7.627394,-6.657506
1305031907068197888,0.0,0.0,0.0,1.053706,7.627394,-6.657506
1305031907069271040,0.0,0.0,0.0,1.053706,7.627394,-6.657506
1305031907072966144,0.0,0.0,0.0,0.910019,7.627394,-6.657506
1305031907073961984,0.0,0.0,0.0,0.910019,7.627394,-6.657506
1305031907077070080,0.0,0.0,0.0,0.862123,7.627394,-6.657506
1305031907078195968,0.0,0.0,0.0,0.862123,7.627394,-6.657506
1305031907079320064,0.0,0.0,0.0,0.862123,7.627394,-6.657506
1305031907080526080,0.0,0.0,0.0,0.862123,7.627394,-6.657506
1305031907083977984,0.0,0.0,0.0,0.862123,7.435812,-6.657506
1305031907085082880,0.0,0.0,0.0,0.862123,7.435812,-6.657506
1305031907088332800,0.0,0.0,0.0,0.957915,7.435812,-6.849089
1305031907089298944,0.0,0.0,0.0,0.957915,7.435812,-6.849089
1305031907092979968,0.0,0.0,0.0,1.209367,7.435812,-6.561715
1305031907094125056,0.0,0.0,0.0,1.209367,7.435812,-6.561715
1305031907097220864,0.0,0.0,0.0,1.053706,7.615421,-6.657506
1305031907098198016,0.0,0.0,0.0,1.053706,7.615421,-6.657506
1305031907101854208,0.0,0.0,0.0,1.209367,7.435812,-6.657506
1305031907102796032,0.0,0.0,0.0,1.209367,7.435812,-6.657506
1305031907104072192,0.0,0.0,0.0,1.209367,7.435812,-6.657506
1305031907105210112,0.0,0.0,0.0,1.209367,7.435812,-6.657506
1305031907108449024,0.0,0.0,0.0,1.257263,7.627394,-6.657506
1305031907109339904,0.0,0.0,0.0,1.257263,7.627394,-6.657506
1305031907112958976,0.0,0.0,0.0,1.053706,7.615421,-6.657506
1305031907113960960,0.0,0.0,0.0,1.053706,7.615421,-6.657506
1305031907117208832,0.0,0.0,0.0,1.053706,7.627394,-6.370132
1305031907118238976,0.0,0.0,0.0,1.053706,7.627394,-6.370132
1305031907119488000,0.0,0.0,0.0,1.053706,7.627394,-6.370132
1305031907122802944,0.0,0.0,0.0,1.053706,7.603447,-6.370132
1305031907123961856,0.0,0.0,0.0,1.053706,7.603447,-6.370132
1305031907127197952,0.0,0.0,0.0,0.874097,7.627394,-6.274340
1305031907128221952,0.0,0.0,0.0,0.874097,7.627394,-6.274340
1305031907131858176,0.0,0.0,0.0,0.862123,7.627394,-6.274340
1305031907132817152,0.0,0.0,0.0,0.862123,7.627394,-6.274340
1305031907134087936,0.0,0.0,0.0,0.862123,7.627394,-6.274340
1305031907135084032,0.0,0.0,0.0,0.862123,7.627394,-6.274340
1305031907138371072,0.0,0.0,0.0,0.862123,7.627394,-6.274340
1305031907139396864,0.0,0.0,0.0,0.862123,7.627394,-6.274340
1305031907142967040,0.0,0.0,0.0,0.910019,7.723186,-6.250392
1305031907143960832,0.0,0.0,0.0,0.910019,7.723186,-6.250392
1305031907147264000,0.0,0.0,0.0,1.053706,7.723186,-6.322236
1305031907148237056,0.0,0.0,0.0,1.053706,7.723186,-6.322236
1305031907151716864,0.0,0.0,0.0,0.957915,8.010560,-6.274340
1305031907152812032,0.0,0.0,0.0,0.957915,8.010560,-6.274340
1305031907154094080,0.0,0.0,0.0,0.957915,8.010560,-6.274340
1305031907155070976,0.0,0.0,0.0,0.957915,8.010560,-6.274340
1305031907158363136,0.0,0.0,0.0,1.053706,7.986612,-6.274340
1305031907159365888,0.0,0.0,0.0,1.053706,7.986612,-6.274340
1305031907162924032,0.0,0.0,0.0,1.053706,7.986612,-6.465923
1305031907163918848,0.0,0.0,0.0,1.053706,7.986612,-6.465923
1305031907167212032,0.0,0.0,0.0,1.161471,7.962665,-6.274340
1305031907168173056,0.0,0.0,0.0,1.161471,7.962665,-6.274340
1305031907171880960,0.0,0.0,0.0,1.233315,7.986612,-6.274340
1305031907172815104,0.0,0.0,0.0,1.233315,7.986612,-6.274340
1305031907174092032,0.0,0.0,0.0,1.233315,7.986612,-6.274340
1305031907175066112,0.0,0.0,0.0,1.233315,7.986612,-6.274340
1305031907178358016,0.0,0.0,0.0,1.053706,7.962665,-6.465923
1305031907179320064,0.0,0.0,0.0,1.053706,7.962665,-6.465923
1305031907182985984,0.0,0.0,0.0,1.053706,8.010560,-6.669480
1305031907183949824,0.0,0.0,0.0,1.053706,8.010560,-6.669480
1305031907187212032,0.0,0.0,0.0,1.053706,8.010560,-6.370132
1305031907188225024,0.0,0.0,0.0,1.053706,8.010560,-6.370132
1305031907191858944,0.0,0.0,0.0,1.053706,7.818977,-6.657506
1305031907192955904,0.0,0.0,0.0,1.053706,7.818977,-6.657506
1305031907194170112,0.0,0.0,0.0,1.053706,7.818977,-6.657506
1305031907195163904,0.0,0.0,0.0,1.053706,7.818977,-6.657506
1305031907198296064,0.0,0.0,0.0,1.233315,7.962665,-6.370132
1305031907199367936,0.0,0.0,0.0,1.233315,7.962665,-6.370132
1305031907202982912,0.0,0.0,0.0,1.161471,7.723186,-6.465923
1305031907203946240,0.0,0.0,0.0,1.161471,7.723186,-6.465923
1305031907207206912,0.0,0.0,0.0,1.053706,7.818977,-6.609610
1305031907208251904,0.0,0.0,0.0,1.053706,7.818977,-6.609610
1305031907211836160,0.0,0.0,0.0,1.209367,7.723186,-6.465923
1305031907212798976,0.0,0.0,0.0,1.209367,7.723186,-6.465923
1305031907214087936,0.0,0.0,0.0,1.209367,7.723186,-6.465923
1305031907215062016,0.0,0.0,0.0,1.209367,7.723186,-6.465923
1305031907218384896,0.0,0.0,0.0,0.862123,7.818977,-6.274340
1305031907219368960,0.0,0.0,0.0,0.862123,7.818977,-6.274340
1305031907222982912,0.0,0.0,0.0,1.053706,7.818977,-6.274340
1305031907223963136,0.0,0.0,0.0,1.053706,7.818977,-6.274340
1305031907227184128,0.0,0.0,0.0,0.957915,7.818977,-6.178549
1305031907228184064,0.0,0.0,0.0,0.957915,7.818977,-6.178549
1305031907231704064,0.0,0.0,0.0,1.053706,7.914769,-6.082757
1305031907232804096,0.0,0.0,0.0,1.053706,7.914769,-6.082757
1305031907234072064,0.0,0.0,0.0,1.053706,7.914769,-6.082757
1305031907235068928,0.0,0.0,0.0,1.053706,7.914769,-6.082757
1305031907238292992,0.0,0.0,0.0,0.957915,8.010560,-5.939070
1305031907239336960,0.0,0.0,0.0,0.957915,8.010560,-5.939070
1305031907242980864,0.0,0.0,0.0,0.910019,7.986612,-5.939070
1305031907243948032,0.0,0.0,0.0,0.910019,7.986612,-5.939070
1305031907247184128,0.0,0.0,0.0,1.053706,7.914769,-6.082757
1305031907248198912,0.0,0.0,0.0,1.053706,7.914769,-6.082757
1305031907251816960,0.0,0.0,0.0,1.053706,7.962665,-6.082757
1305031907252811008,0.0,0.0,0.0,1.053706,7.962665,-6.082757
1305031907254086912,0.0,0.0,0.0,1.053706,7.962665,-6.082757
1305031907255084032,0.0,0.0,0.0,1.053706,7.962665,-6.082757
1305031907258338816,0.0,0.0,0.0,1.053706,7.818977,-5.986966
1305031907259335168,0.0,0.0,0.0,1.053706,7.818977,-5.986966
1305031907262936064,0.0,0.0,0.0,0.957915,7.962665,-6.082757
1305031907263932928,0.0,0.0,0.0,0.957915,7.962665,-6.082757
1305031907267033088,0.0,0.0,0.0,0.910019,7.986612,-5.986966
1305031907268215040,0.0,0.0,0.0,0.910019,7.986612,-5.986966
1305031907269795840,0.0,0.0,0.0,0.910019,7.986612,-5.986966
1305031907272939008,0.0,0.0,0.0,1.053706,7.818977,-6.082757
1305031907273972992,0.0,0.0,0.0,1.053706,7.818977,-6.082757
1305031907277193984,0.0,0.0,0.0,0.862123,7.818977,-5.843279
1305031907278333952,0.0,0.0,0.0,0.862123,7.818977,-5.843279
1305031907281855232,0.0,0.0,0.0,0.862123,7.818977,-5.986966
1305031907282796032,0.0,0.0,0.0,0.862123,7.818977,-5.986966
1305031907284075008,0.0,0.0,0.0,0.862123,7.818977,-5.986966
1305031907285208064,0.0,0.0,0.0,0.862123,7.818977,-5.986966
1305031907288348928,0.0,0.0,0.0,0.910019,7.818977,-5.843279
1305031907289336832,0.0,0.0,0.0,0.910019,7.818977,-5.843279
1305031907292953088,0.0,0.0,0.0,1.053706,7.675290,-5.986966
1305031907293935104,0.0,0.0,0.0,1.053706,7.675290,-5.986966
1305031907297175040,0.0,0.0,0.0,0.862123,7.818977,-5.891174
1305031907298166016,0.0,0.0,0.0,0.862123,7.818977,-5.891174
1305031907301815040,0.0,0.0,0.0,0.886071,7.914769,-5.986966
1305031907302962944,0.0,0.0,0.0,0.886071,7.914769,-5.986966
1305031907303970048,0.0,0.0,0.0,0.886071,7.914769,-5.986966
1305031907307207936,0.0,0.0,0.0,0.862123,8.010560,-5.939070
1305031907308208896,0.0,0.0,0.0,0.862123,8.010560,-5.939070
1305031907311834112,0.0,0.0,0.0,0.826201,7.818977,-5.699591
1305031907312803072,0.0,0.0,0.0,0.826201,7.818977,-5.699591
1305031907314071040,0.0,0.0,0.0,0.826201,7.818977,-5.699591
1305031907315063040,0.0,0.0,0.0,0.826201,7.818977,-5.699591
1305031907318332928,0.0,0.0,0.0,0.910019,7.818977,-5.891174
1305031907319364096,0.0,0.0,0.0,0.910019,7.818977,-5.891174
1305031907322978048,0.0,0.0,0.0,0.778306,7.818977,-5.795383
1305031907323964160,0.0,0.0,0.0,0.778306,7.818977,-5.795383
1305031907327174912,0.0,0.0,0.0,0.826201,8.010560,-5.508009
1305031907328169984,0.0,0.0,0.0,0.826201,8.010560,-5.508009
1305031907331849216,0.0,0.0,0.0,0.778306,7.914769,-5.508009
1305031907332940032,0.0,0.0,0.0,0.778306,7.914769,-5.508009
1305031907334073088,0.0,0.0,0.0,0.778306,7.914769,-5.508009
1305031907335213824,0.0,0.0,0.0,0.778306,7.914769,-5.508009
1305031907338339072,0.0,0.0,0.0,0.778306,7.962665,-5.699591
1305031907339320064,0.0,0.0,0.0,0.778306,7.962665,-5.699591
1305031907342972160,0.0,0.0,0.0,0.862123,7.914769,-5.508009
1305031907343965952,0.0,0.0,0.0,0.862123,7.914769,-5.508009
1305031907347191040,0.0,0.0,0.0,0.862123,7.914769,-5.460113
1305031907348242944,0.0,0.0,0.0,0.862123,7.914769,-5.460113
1305031907349805056,0.0,0.0,0.0,0.862123,7.914769,-5.460113
1305031907353082880,0.0,0.0,0.0,0.886071,7.723186,-5.891174
1305031907354088960,0.0,0.0,0.0,0.886071,7.723186,-5.891174
1305031907357209856,0.0,0.0,0.0,0.862123,7.627394,-5.843279
1305031907358240000,0.0,0.0,0.0,0.862123,7.627394,-5.843279
1305031907361801984,0.0,0.0,0.0,0.778306,7.675290,-5.699591
1305031907362791936,0.0,0.0,0.0,0.778306,7.675290,-5.699591
1305031907364046080,0.0,0.0,0.0,0.778306,7.675290,-5.699591
1305031907365044992,0.0,0.0,0.0,0.778306,7.675290,-5.699591
1305031907368200960,0.0,0.0,0.0,0.682514,7.651342,-5.603800
1305031907369309952,0.0,0.0,0.0,0.682514,7.651342,-5.603800
1305031907372953856,0.0,0.0,0.0,0.682514,7.531603,-5.795383
1305031907373965056,0.0,0.0,0.0,0.682514,7.531603,-5.795383
1305031907377218048,0.0,0.0,0.0,0.682514,7.627394,-5.603800
1305031907378350080,0.0,0.0,0.0,0.682514,7.627394,-5.603800
1305031907381895936,0.0,0.0,0.0,0.574749,7.627394,-5.508009
1305031907382798080,0.0,0.0,0.0,0.574749,7.627394,-5.508009
1305031907384090880,0.0,0.0,0.0,0.574749,7.627394,-5.508009
1305031907385221888,0.0,0.0,0.0,0.574749,7.627394,-5.508009
1305031907388339968,0.0,0.0,0.0,0.478957,7.627394,-5.508009
1305031907389317888,0.0,0.0,0.0,0.478957,7.627394,-5.508009
1305031907392936960,0.0,0.0,0.0,0.443035,7.627394,-5.603800
1305031907393922048,0.0,0.0,0.0,0.443035,7.627394,-5.603800
1305031907397184000,0.0,0.0,0.0,0.287374,7.675290,-5.519982
1305031907398180864,0.0,0.0,0.0,0.287374,7.675290,-5.519982
1305031907401808128,0.0,0.0,0.0,0.443035,7.675290,-5.699591
1305031907402787840,0.0,0.0,0.0,0.443035,7.675290,-5.699591
1305031907404052992,0.0,0.0,0.0,0.443035,7.675290,-5.699591
1305031907405172992,0.0,0.0,0.0,0.443035,7.675290,-5.699591
1305031907408320000,0.0,0.0,0.0,0.191583,8.010560,-5.316426
1305031907409463808,0.0,0.0,0.0,0.191583,8.010560,-5.316426
1305031907412962816,0.0,0.0,0.0,0.478957,8.010560,-5.316426
1305031907413943040,0.0,0.0,0.0,0.478957,8.010560,-5.316426
1305031907417193984,0.0,0.0,0.0,0.478957,8.202143,-5.124843
1305031907418196992,0.0,0.0,0.0,0.478957,8.202143,-5.124843
1305031907421839104,0.0,0.0,0.0,0.478957,8.369778,-5.100895
1305031907422796032,0.0,0.0,0.0,0.478957,8.369778,-5.100895
1305031907424088832,0.0,0.0,0.0,0.478957,8.369778,-5.100895
1305031907425051904,0.0,0.0,0.0,0.478957,8.369778,-5.100895
1305031907428168960,0.0,0.0,0.0,0.526853,8.369778,-5.124843
1305031907429306112,0.0,0.0,0.0,0.526853,8.369778,-5.124843
1305031907432802816,0.0,0.0,0.0,0.682514,8.202143,-5.316426
1305031907433968128,0.0,0.0,0.0,0.682514,8.202143,-5.316426
1305031907437211904,0.0,0.0,0.0,0.395140,8.393726,-5.124843
1305031907438216960,0.0,0.0,0.0,0.395140,8.393726,-5.124843
1305031907439311872,0.0,0.0,0.0,0.395140,8.393726,-5.124843
1305031907440556032,0.0,0.0,0.0,0.395140,8.393726,-5.124843
1305031907444133888,0.0,0.0,0.0,0.478957,8.297935,-5.316426
1305031907445090048,0.0,0.0,0.0,0.478957,8.297935,-5.316426
1305031907448327936,0.0,0.0,0.0,0.526853,8.058456,-5.699591
1305031907449321984,0.0,0.0,0.0,0.526853,8.058456,-5.699591
1305031907452928000,0.0,0.0,0.0,0.478957,8.034508,-5.519982
1305031907453947904,0.0,0.0,0.0,0.478957,8.034508,-5.519982
1305031907457204224,0.0,0.0,0.0,0.574749,8.022534,-5.603800
1305031907458201856,0.0,0.0,0.0,0.574749,8.022534,-5.603800
1305031907461807104,0.0,0.0,0.0,0.443035,8.010560,-5.508009
1305031907462779904,0.0,0.0,0.0,0.443035,8.010560,-5.508009
1305031907464040960,0.0,0.0,0.0,0.443035,8.010560,-5.508009
1305031907465081856,0.0,0.0,0.0,0.443035,8.010560,-5.508009
1305031907468348928,0.0,0.0,0.0,0.443035,8.010560,-5.484061
1305031907469285120,0.0,0.0,0.0,0.443035,8.010560,-5.484061
1305031907472930048,0.0,0.0,0.0,0.443035,8.010560,-5.508009
1305031907473936128,0.0,0.0,0.0,0.443035,8.010560,-5.508009
1305031907477222912,0.0,0.0,0.0,0.395140,7.818977,-5.316426
1305031907478244096,0.0,0.0,0.0,0.395140,7.818977,-5.316426
1305031907479473152,0.0,0.0,0.0,0.395140,7.818977,-5.316426
1305031907480609792,0.0,0.0,0.0,0.395140,7.818977,-5.316426
1305031907484195840,0.0,0.0,0.0,0.478957,7.818977,-5.316426
1305031907487212032,0.0,0.0,0.0,0.395140,7.818977,-5.136817
1305031907488228096,0.0,0.0,0.0,0.395140,7.818977,-5.136817
1305031907491860992,0.0,0.0,0.0,0.478957,7.818977,-5.316426
1305031907493259008,0.0,0.0,0.0,0.478957,7.818977,-5.316426
1305031907494170880,0.0,0.0,0.0,0.478957,7.818977,-5.316426
1305031907495166976,0.0,0.0,0.0,0.478957,7.818977,-5.316426
1305031907498297088,0.0,0.0,0.0,0.395140,7.818977,-5.076947
1305031907499296000,0.0,0.0,0.0,0.395140,7.818977,-5.076947
1305031907502968064,0.0,0.0,0.0,0.478957,7.818977,-4.837468
1305031907503950080,0.0,0.0,0.0,0.478957,7.818977,-4.837468
1305031907507214080,0.0,0.0,0.0,0.478957,7.914769,-4.933260
1305031907508222976,0.0,0.0,0.0,0.478957,7.914769,-4.933260
1305031907511848960,0.0,0.0,0.0,0.478957,7.818977,-4.837468
1305031907512793088,0.0,0.0,0.0,0.478957,7.818977,-4.837468
1305031907514099968,0.0,0.0,0.0,0.478957,7.818977,-4.837468
1305031907515072000,0.0,0.0,0.0,0.478957,7.818977,-4.837468
1305031907518345984,0.0,0.0,0.0,0.526853,7.818977,-5.076947
1305031907519321088,0.0,0.0,0.0,0.526853,7.818977,-5.076947
1305031907522985984,0.0,0.0,0.0,0.682514,8.010560,-5.124843
1305031907523948800,0.0,0.0,0.0,0.682514,8.010560,-5.124843
1305031907527056896,0.0,0.0,0.0,0.502905,8.010560,-5.124843
1305031907528214016,0.0,0.0,0.0,0.502905,8.010560,-5.124843
1305031907531815936,0.0,0.0,0.0,0.682514,8.034508,-5.136817
1305031907532987136,0.0,0.0,0.0,0.682514,8.034508,-5.136817
1305031907533794048,0.0,0.0,0.0,0.682514,8.034508,-5.136817
1305031907537217024,0.0,0.0,0.0,0.778306,8.202143,-5.316426
1305031907538199808,0.0,0.0,0.0,0.778306,8.202143,-5.316426
1305031907541950976,0.0,0.0,0.0,0.826201,8.202143,-5.076947
1305031907542972928,0.0,0.0,0.0,0.826201,8.202143,-5.076947
1305031907544076032,0.0,0.0,0.0,0.826201,8.202143,-5.076947
1305031907545201920,0.0,0.0,0.0,0.826201,8.202143,-5.076947
1305031907548222976,0.0,0.0,0.0,0.957915,8.202143,-5.124843
1305031907549336064,0.0,0.0,0.0,0.957915,8.202143,-5.124843
1305031907552923904,0.0,0.0,0.0,0.862123,8.202143,-4.789573
1305031907553934080,0.0,0.0,0.0,0.862123,8.202143,-4.789573
1305031907557195008,0.0,0.0,0.0,0.886071,8.010560,-4.837468
1305031907558248960,0.0,0.0,0.0,0.886071,8.010560,-4.837468
1305031907561799936,0.0,0.0,0.0,0.886071,8.106352,-4.765625
1305031907562791168,0.0,0.0,0.0,0.886071,8.106352,-4.765625
1305031907564048128,0.0,0.0,0.0,0.886071,8.106352,-4.765625
1305031907565038848,0.0,0.0,0.0,0.886071,8.106352,-4.765625
1305031907568207104,0.0,0.0,0.0,1.053706,8.106352,-4.789573
1305031907569293056,0.0,0.0,0.0,1.053706,8.106352,-4.789573
1305031907572796160,0.0,0.0,0.0,1.053706,8.106352,-4.741677
1305031907573967872,0.0,0.0,0.0,1.053706,8.106352,-4.741677
1305031907577213952,0.0,0.0,0.0,0.957915,8.369778,-4.454303
1305031907578237952,0.0,0.0,0.0,0.957915,8.369778,-4.454303
1305031907579471104,0.0,0.0,0.0,0.957915,8.369778,-4.454303
1305031907580466944,0.0,0.0,0.0,0.957915,8.369778,-4.454303
1305031907584089088,0.0,0.0,0.0,1.053706,8.202143,-4.310615
1305031907585097984,0.0,0.0,0.0,1.053706,8.202143,-4.310615
1305031907588367872,0.0,0.0,0.0,1.209367,8.202143,-4.166928
1305031907589379072,0.0,0.0,0.0,1.209367,8.202143,-4.166928
1305031907592964864,0.0,0.0,0.0,1.161471,8.058456,-4.310615
1305031907593942016,0.0,0.0,0.0,1.161471,8.058456,-4.310615
1305031907597050880,0.0,0.0,0.0,1.161471,8.022534,-4.358511
1305031907598043904,0.0,0.0,0.0,1.161471,8.022534,-4.358511
1305031907599329024,0.0,0.0,0.0,1.161471,8.022534,-4.358511
1305031907600465920,0.0,0.0,0.0,1.161471,8.022534,-4.358511
1305031907604128000,0.0,0.0,0.0,0.957915,8.202143,-3.975345
1305031907605091072,0.0,0.0,0.0,0.957915,8.202143,-3.975345
1305031907608346112,0.0,0.0,0.0,0.886071,8.202143,-4.071137
1305031907609369088,0.0,0.0,0.0,0.886071,8.202143,-4.071137
1305031907612926976,0.0,0.0,0.0,0.886071,8.058456,-4.166928
1305031907613954048,0.0,0.0,0.0,0.886071,8.058456,-4.166928
1305031907617323008,0.0,0.0,0.0,0.910019,7.615421,-4.550094
1305031907618343168,0.0,0.0,0.0,0.910019,7.615421,-4.550094
1305031907622006016,0.0,0.0,0.0,1.053706,7.196333,-4.645885
1305031907622972928,0.0,0.0,0.0,1.053706,7.196333,-4.645885
1305031907624221184,0.0,0.0,0.0,1.053706,7.196333,-4.645885
1305031907625201920,0.0,0.0,0.0,1.053706,7.196333,-4.645885
1305031907628354048,0.0,0.0,0.0,0.862123,6.885011,-4.741677
1305031907629522176,0.0,0.0,0.0,0.862123,6.885011,-4.741677
1305031907632994816,0.0,0.0,0.0,1.053706,6.669480,-4.837468
1305031907634063104,0.0,0.0,0.0,1.053706,6.669480,-4.837468
1305031907637198848,0.0,0.0,0.0,1.053706,6.573688,-4.933260
1305031907638198016,0.0,0.0,0.0,1.053706,6.573688,-4.933260
1305031907641876992,0.0,0.0,0.0,0.957915,6.765271,-4.933260
1305031907642823936,0.0,0.0,0.0,0.957915,6.765271,-4.933260
1305031907644085760,0.0,0.0,0.0,0.957915,6.765271,-4.933260
1305031907645193984,0.0,0.0,0.0,0.957915,6.765271,-4.933260
1305031907648225024,0.0,0.0,0.0,1.053706,6.861063,-5.029051
1305031907649374976,0.0,0.0,0.0,1.053706,6.861063,-5.029051
1305031907652798976,0.0,0.0,0.0,1.053706,6.861063,-5.124843
1305031907653975040,0.0,0.0,0.0,1.053706,6.861063,-5.124843
1305031907657090048,0.0,0.0,0.0,1.257263,6.861063,-5.136817
1305031907658055936,0.0,0.0,0.0,1.257263,6.861063,-5.136817
1305031907659351040,0.0,0.0,0.0,1.257263,6.861063,-5.136817
1305031907660541184,0.0,0.0,0.0,1.257263,6.861063,-5.136817
1305031907664058880,0.0,0.0,0.0,1.448846,6.861063,-5.699591
1305031907665051904,0.0,0.0,0.0,1.448846,6.861063,-5.699591
1305031907668350976,0.0,0.0,0.0,1.245289,7.052646,-5.699591
1305031907669325056,0.0,0.0,0.0,1.245289,7.052646,-5.699591
1305031907672965120,0.0,0.0,0.0,1.293185,6.908959,-5.891174
1305031907674114048,0.0,0.0,0.0,1.293185,6.908959,-5.891174
1305031907677221888,0.0,0.0,0.0,1.257263,6.861063,-5.891174
1305031907678199040,0.0,0.0,0.0,1.257263,6.861063,-5.891174
1305031907681863936,0.0,0.0,0.0,1.245289,6.849089,-5.986966
1305031907682800128,0.0,0.0,0.0,1.245289,6.849089,-5.986966
1305031907684104960,0.0,0.0,0.0,1.245289,6.849089,-5.986966
1305031907685054976,0.0,0.0,0.0,1.245289,6.849089,-5.986966
1305031907688385024,0.0,0.0,0.0,0.957915,6.885011,-6.274340
1305031907689325056,0.0,0.0,0.0,0.957915,6.885011,-6.274340
1305031907693001984,0.0,0.0,0.0,0.862123,6.885011,-6.465923
1305031907693944832,0.0,0.0,0.0,0.862123,6.885011,-6.465923
1305031907697193984,0.0,0.0,0.0,0.826201,6.908959,-6.465923
1305031907698182144,0.0,0.0,0.0,0.826201,6.908959,-6.465923
1305031907701869056,0.0,0.0,0.0,0.862123,6.956854,-6.370132
1305031907702851072,0.0,0.0,0.0,0.862123,6.956854,-6.370132
1305031907704098816,0.0,0.0,0.0,0.862123,6.956854,-6.370132
1305031907705238016,0.0,0.0,0.0,0.862123,6.956854,-6.370132
1305031907708197120,0.0,0.0,0.0,0.682514,7.052646,-6.465923
1305031907709351168,0.0,0.0,0.0,0.682514,7.052646,-6.465923
1305031907712968192,0.0,0.0,0.0,0.574749,6.956854,-6.657506
1305031907713977088,0.0,0.0,0.0,0.574749,6.956854,-6.657506
1305031907717214208,0.0,0.0,0.0,0.478957,6.885011,-6.669480
1305031907718224896,0.0,0.0,0.0,0.478957,6.885011,-6.669480
1305031907721880832,0.0,0.0,0.0,0.478957,6.873037,-6.944880
1305031907722834176,0.0,0.0,0.0,0.478957,6.873037,-6.944880
1305031907724077824,0.0,0.0,0.0,0.478957,6.873037,-6.944880
1305031907725193984,0.0,0.0,0.0,0.478957,6.873037,-6.944880
1305031907728354048,0.0,0.0,0.0,0.287374,6.885011,-6.705402
1305031907729298944,0.0,0.0,0.0,0.287374,6.885011,-6.705402
1305031907732975104,0.0,0.0,0.0,0.287374,7.052646,-6.465923
1305031907733926144,0.0,0.0,0.0,0.287374,7.052646,-6.465923
1305031907737190912,0.0,0.0,0.0,0.191583,7.052646,-6.322236
1305031907738189056,0.0,0.0,0.0,0.191583,7.052646,-6.322236
1305031907741810176,0.0,0.0,0.0,0.107765,7.052646,-6.370132
1305031907742789888,0.0,0.0,0.0,0.107765,7.052646,-6.370132
1305031907744060928,0.0,0.0,0.0,0.107765,7.052646,-6.370132
1305031907745188864,0.0,0.0,0.0,0.107765,7.052646,-6.370132
1305031907748222976,0.0,0.0,0.0,0.395140,7.148437,-6.561715
1305031907749342976,0.0,0.0,0.0,0.395140,7.148437,-6.561715
1305031907752935936,0.0,0.0,0.0,0.287374,7.052646,-6.561715
1305031907753972992,0.0,0.0,0.0,0.287374,7.052646,-6.561715
1305031907757214976,0.0,0.0,0.0,0.287374,7.052646,-6.657506
1305031907758199808,0.0,0.0,0.0,0.287374,7.052646,-6.657506
1305031907761824000,0.0,0.0,0.0,0.287374,6.956854,-6.657506
1305031907762799104,0.0,0.0,0.0,0.287374,6.956854,-6.657506
1305031907764055040,0.0,0.0,0.0,0.287374,6.956854,-6.657506
1305031907765052160,0.0,0.0,0.0,0.287374,6.956854,-6.657506
1305031907768199936,0.0,0.0,0.0,0.478957,7.052646,-6.849089
1305031907769325056,0.0,0.0,0.0,0.478957,7.052646,-6.849089
1305031907772926976,0.0,0.0,0.0,0.287374,6.956854,-6.849089
1305031907773974016,0.0,0.0,0.0,0.287374,6.956854,-6.849089
1305031907777227008,0.0,0.0,0.0,0.395140,6.885011,-6.992776
1305031907778203904,0.0,0.0,0.0,0.395140,6.885011,-6.992776
1305031907781848064,0.0,0.0,0.0,0.287374,7.052646,-7.040672
1305031907782807040,0.0,0.0,0.0,0.287374,7.052646,-7.040672
1305031907784096000,0.0,0.0,0.0,0.287374,7.052646,-7.040672
1305031907785121024,0.0,0.0,0.0,0.287374,7.052646,-7.040672
1305031907788258048,0.0,0.0,0.0,0.107765,7.052646,-7.088568
1305031907789324032,0.0,0.0,0.0,0.107765,7.052646,-7.088568
1305031907792825856,0.0,0.0,0.0,0.107765,7.052646,-7.016724
1305031907794138880,0.0,0.0,0.0,0.107765,7.052646,-7.016724
1305031907797054976,0.0,0.0,0.0,0.107765,7.052646,-6.944880
1305031907798065920,0.0,0.0,0.0,0.107765,7.052646,-6.944880
1305031907799300864,0.0,0.0,0.0,0.107765,7.052646,-6.944880
1305031907800326144,0.0,0.0,0.0,0.107765,7.052646,-6.944880
1305031907804091904,0.0,0.0,0.0,0.287374,6.908959,-7.328046
1305031907805068032,0.0,0.0,0.0,0.287374,6.908959,-7.328046
1305031907808345088,0.0,0.0,0.0,0.395140,6.908959,-7.328046
1305031907809342976,0.0,0.0,0.0,0.395140,6.908959,-7.328046
1305031907812929024,0.0,0.0,0.0,0.287374,6.885011,-7.040672
1305031907814016000,0.0,0.0,0.0,0.287374,6.885011,-7.040672
1305031907817248000,0.0,0.0,0.0,0.107765,6.956854,-7.040672
1305031907818219008,0.0,0.0,0.0,0.107765,6.956854,-7.040672
1305031907821861120,0.0,0.0,0.0,0.095791,7.052646,-7.064620
1305031907822843904,0.0,0.0,0.0,0.095791,7.052646,-7.064620
1305031907824097024,0.0,0.0,0.0,0.095791,7.052646,-7.064620
1305031907825072896,0.0,0.0,0.0,0.095791,7.052646,-7.064620
1305031907828370944,0.0,0.0,0.0,0.011974,7.244229,-6.849089
1305031907829318144,0.0,0.0,0.0,0.011974,7.244229,-6.849089
1305031907832980992,0.0,0.0,0.0,0.095791,7.435812,-7.040672
1305031907833932032,0.0,0.0,0.0,0.095791,7.435812,-7.040672
1305031907837198080,0.0,0.0,0.0,0.095791,7.651342,-6.849089
1305031907838326016,0.0,0.0,0.0,0.095791,7.651342,-6.849089
1305031907842006016,0.0,0.0,0.0,0.107765,7.914769,-6.609610
1305031907842983936,0.0,0.0,0.0,0.107765,7.914769,-6.609610
1305031907844219904,0.0,0.0,0.0,0.107765,7.914769,-6.609610
1305031907845228032,0.0,0.0,0.0,0.107765,7.914769,-6.609610
1305031907848342784,0.0,0.0,0.0,0.059870,8.106352,-6.465923
1305031907849392896,0.0,0.0,0.0,0.059870,8.106352,-6.465923
1305031907852948992,0.0,0.0,0.0,-0.083818,8.393726,-6.082757
1305031907854075904,0.0,0.0,0.0,-0.083818,8.393726,-6.082757
1305031907857198080,0.0,0.0,0.0,-0.083818,8.405700,-6.274340
1305031907858184960,0.0,0.0,0.0,-0.083818,8.405700,-6.274340
1305031907861836032,0.0,0.0,0.0,0.095791,8.585309,-6.082757
1305031907862798848,0.0,0.0,0.0,0.095791,8.585309,-6.082757
1305031907864065024,0.0,0.0,0.0,0.095791,8.585309,-6.082757
1305031907865186816,0.0,0.0,0.0,0.095791,8.585309,-6.082757
1305031907868201984,0.0,0.0,0.0,-0.083818,8.681100,-5.891174
1305031907869355008,0.0,0.0,0.0,-0.083818,8.681100,-5.891174
1305031907872939008,0.0,0.0,0.0,0.107765,8.585309,-5.891174
1305031907874011904,0.0,0.0,0.0,0.107765,8.585309,-5.891174
1305031907877201920,0.0,0.0,0.0,0.107765,8.585309,-6.082757
1305031907878216960,0.0,0.0,0.0,0.107765,8.585309,-6.082757
1305031907881864960,0.0,0.0,0.0,0.191583,8.585309,-6.322236
1305031907882793984,0.0,0.0,0.0,0.191583,8.585309,-6.322236
1305031907884061184,0.0,0.0,0.0,0.191583,8.585309,-6.322236
1305031907885186048,0.0,0.0,0.0,0.191583,8.585309,-6.322236
1305031907888227072,0.0,0.0,0.0,0.119739,8.393726,-6.274340
1305031907889300992,0.0,0.0,0.0,0.119739,8.393726,-6.274340
1305031907892952832,0.0,0.0,0.0,0.191583,8.202143,-6.274340
1305031907893927936,0.0,0.0,0.0,0.191583,8.202143,-6.274340
1305031907897184000,0.0,0.0,0.0,0.143687,8.202143,-6.274340
1305031907898171904,0.0,0.0,0.0,0.143687,8.202143,-6.274340
1305031907899439104,0.0,0.0,0.0,0.143687,8.202143,-6.274340
1305031907900808192,0.0,0.0,0.0,0.143687,8.202143,-6.274340
1305031907904077056,0.0,0.0,0.0,0.287374,7.914769,-6.465923
1305031907905075200,0.0,0.0,0.0,0.287374,7.914769,-6.465923
1305031907908199936,0.0,0.0,0.0,0.119739,7.818977,-6.274340
1305031907909327872,0.0,0.0,0.0,0.119739,7.818977,-6.274340
1305031907912972800,0.0,0.0,0.0,0.287374,7.627394,-6.370132
1305031907913935872,0.0,0.0,0.0,0.287374,7.627394,-6.370132
1305031907917196032,0.0,0.0,0.0,0.478957,7.435812,-6.274340
1305031907918210048,0.0,0.0,0.0,0.478957,7.435812,-6.274340
1305031907921825792,0.0,0.0,0.0,0.395140,7.435812,-6.274340
1305031907922801920,0.0,0.0,0.0,0.395140,7.435812,-6.274340
1305031907924078848,0.0,0.0,0.0,0.395140,7.435812,-6.274340
1305031907925211904,0.0,0.0,0.0,0.395140,7.435812,-6.274340
1305031907928356864,0.0,0.0,0.0,0.478957,7.531603,-5.939070
1305031907929312000,0.0,0.0,0.0,0.478957,7.531603,-5.939070
1305031907933060864,0.0,0.0,0.0,0.478957,7.244229,-6.082757
1305031907934057984,0.0,0.0,0.0,0.478957,7.244229,-6.082757
1305031907937208064,0.0,0.0,0.0,0.526853,7.268176,-5.891174
1305031907938339072,0.0,0.0,0.0,0.526853,7.268176,-5.891174
1305031907941970176,0.0,0.0,0.0,0.478957,7.435812,-5.699591
1305031907942967040,0.0,0.0,0.0,0.478957,7.435812,-5.699591
1305031907944080128,0.0,0.0,0.0,0.478957,7.435812,-5.699591
1305031907945220864,0.0,0.0,0.0,0.478957,7.435812,-5.699591
1305031907948237056,0.0,0.0,0.0,0.526853,7.579499,-5.939070
1305031907949367040,0.0,0.0,0.0,0.526853,7.579499,-5.939070
1305031907952934912,0.0,0.0,0.0,0.478957,7.531603,-6.082757
1305031907953977088,0.0,0.0,0.0,0.478957,7.531603,-6.082757
1305031907957214976,0.0,0.0,0.0,0.466983,7.435812,-6.082757
1305031907958199040,0.0,0.0,0.0,0.466983,7.435812,-6.082757
1305031907961808896,0.0,0.0,0.0,0.478957,7.292124,-6.274340
1305031907962820096,0.0,0.0,0.0,0.478957,7.292124,-6.274340
1305031907964059136,0.0,0.0,0.0,0.478957,7.292124,-6.274340
1305031907965175040,0.0,0.0,0.0,0.478957,7.292124,-6.274340
1305031907968344832,0.0,0.0,0.0,0.574749,7.244229,-6.370132
1305031907969325056,0.0,0.0,0.0,0.574749,7.244229,-6.370132
1305031907972926976,0.0,0.0,0.0,0.526853,7.196333,-6.298288
1305031907973975040,0.0,0.0,0.0,0.526853,7.196333,-6.298288
1305031907977346816,0.0,0.0,0.0,0.478957,6.908959,-6.657506
1305031907978349056,0.0,0.0,0.0,0.478957,6.908959,-6.657506
1305031907982004992,0.0,0.0,0.0,0.526853,6.861063,-6.849089
1305031907982929920,0.0,0.0,0.0,0.526853,6.861063,-6.849089
1305031907984209920,0.0,0.0,0.0,0.526853,6.861063,-6.849089
1305031907985185024,0.0,0.0,0.0,0.526853,6.861063,-6.849089
1305031907988198912,0.0,0.0,0.0,0.478957,6.861063,-6.849089
1305031907989340160,0.0,0.0,0.0,0.478957,6.861063,-6.849089
1305031907992815104,0.0,0.0,0.0,0.443035,6.861063,-6.849089
1305031907993822208,0.0,0.0,0.0,0.443035,6.861063,-6.849089
1305031907997100032,0.0,0.0,0.0,0.490931,6.861063,-6.992776
1305031907998054912,0.0,0.0,0.0,0.490931,6.861063,-6.992776
1305031907999303936,0.0,0.0,0.0,0.490931,6.861063,-6.992776
1305031908000310016,0.0,0.0,0.0,0.490931,6.861063,-6.992776
1305031908003932928,0.0,0.0,0.0,0.490931,6.837115,-7.040672
1305031908005059840,0.0,0.0,0.0,0.490931,6.837115,-7.040672
1305031908008343040,0.0,0.0,0.0,0.490931,7.052646,-6.753297
1305031908009468928,0.0,0.0,0.0,0.490931,7.052646,-6.753297
1305031908012933120,0.0,0.0,0.0,0.478957,7.148437,-6.657506
1305031908014131968,0.0,0.0,0.0,0.478957,7.148437,-6.657506
1305031908017227776,0.0,0.0,0.0,0.574749,7.244229,-6.561715
1305031908018227200,0.0,0.0,0.0,0.574749,7.244229,-6.561715
1305031908021827072,0.0,0.0,0.0,0.478957,7.256203,-6.465923
1305031908022813952,0.0,0.0,0.0,0.478957,7.256203,-6.465923
1305031908024077824,0.0,0.0,0.0,0.478957,7.256203,-6.465923
1305031908025233152,0.0,0.0,0.0,0.478957,7.256203,-6.465923
1305031908028311040,0.0,0.0,0.0,0.478957,7.435812,-6.226444
1305031908029306880,0.0,0.0,0.0,0.478957,7.435812,-6.226444
1305031908032988928,0.0,0.0,0.0,0.574749,7.435812,-6.274340
1305031908033932800,0.0,0.0,0.0,0.574749,7.435812,-6.274340
1305031908037255936,0.0,0.0,0.0,0.682514,7.531603,-6.274340
1305031908038201088,0.0,0.0,0.0,0.682514,7.531603,-6.274340
1305031908041867008,0.0,0.0,0.0,0.574749,7.435812,-6.274340
1305031908042969088,0.0,0.0,0.0,0.574749,7.435812,-6.274340
1305031908044078080,0.0,0.0,0.0,0.574749,7.435812,-6.274340
1305031908045222912,0.0,0.0,0.0,0.574749,7.435812,-6.274340
1305031908048206080,0.0,0.0,0.0,0.287374,7.220281,-6.178549
1305031908049344000,0.0,0.0,0.0,0.287374,7.220281,-6.178549
1305031908052956160,0.0,0.0,0.0,0.395140,7.148437,-6.274340
1305031908053977856,0.0,0.0,0.0,0.395140,7.148437,-6.274340
1305031908057199872,0.0,0.0,0.0,0.478957,6.956854,-6.274340
1305031908058217984,0.0,0.0,0.0,0.478957,6.956854,-6.274340
1305031908061805056,0.0,0.0,0.0,0.287374,6.956854,-6.298288
1305031908062798080,0.0,0.0,0.0,0.287374,6.956854,-6.298288
1305031908064054016,0.0,0.0,0.0,0.287374,6.956854,-6.298288
1305031908065052928,0.0,0.0,0.0,0.287374,6.956854,-6.298288
1305031908068344064,0.0,0.0,0.0,0.443035,6.861063,-6.657506
1305031908069324032,0.0,0.0,0.0,0.443035,6.861063,-6.657506
1305031908072915968,0.0,0.0,0.0,0.478957,6.861063,-6.657506
1305031908073970944,0.0,0.0,0.0,0.478957,6.861063,-6.657506
1305031908077255936,0.0,0.0,0.0,0.478957,6.861063,-6.705402
1305031908078217984,0.0,0.0,0.0,0.478957,6.861063,-6.705402
1305031908081828096,0.0,0.0,0.0,0.466983,6.669480,-6.753297
1305031908082799872,0.0,0.0,0.0,0.466983,6.669480,-6.753297
1305031908084079872,0.0,0.0,0.0,0.466983,6.669480,-6.753297
1305031908085220096,0.0,0.0,0.0,0.466983,6.669480,-6.753297
1305031908088197120,0.0,0.0,0.0,0.478957,6.669480,-6.657506
1305031908089364992,0.0,0.0,0.0,0.478957,6.669480,-6.657506
1305031908092806144,0.0,0.0,0.0,0.478957,6.573688,-6.849089
1305031908093938176,0.0,0.0,0.0,0.478957,6.573688,-6.849089
1305031908097213952,0.0,0.0,0.0,0.682514,6.489871,-7.040672
1305031908098180096,0.0,0.0,0.0,0.682514,6.489871,-7.040672
1305031908099719936,0.0,0.0,0.0,0.682514,6.489871,-7.040672
1305031908102951168,0.0,0.0,0.0,0.574749,6.669480,-6.849089
1305031908104093184,0.0,0.0,0.0,0.574749,6.669480,-6.849089
1305031908107250944,0.0,0.0,0.0,0.778306,6.765271,-6.849089
1305031908108246016,0.0,0.0,0.0,0.778306,6.765271,-6.849089
1305031908111844096,0.0,0.0,0.0,0.682514,6.837115,-6.681454
1305031908112928000,0.0,0.0,0.0,0.682514,6.837115,-6.681454
1305031908114114048,0.0,0.0,0.0,0.682514,6.837115,-6.681454
1305031908115223040,0.0,0.0,0.0,0.682514,6.837115,-6.681454
1305031908118381056,0.0,0.0,0.0,0.682514,6.669480,-6.849089
1305031908119324928,0.0,0.0,0.0,0.682514,6.669480,-6.849089
1305031908122950144,0.0,0.0,0.0,0.826201,6.765271,-6.657506
1305031908124093952,0.0,0.0,0.0,0.826201,6.765271,-6.657506
1305031908127182848,0.0,0.0,0.0,0.682514,6.861063,-6.753297
1305031908128221952,0.0,0.0,0.0,0.682514,6.861063,-6.753297
1305031908131689984,0.0,0.0,0.0,0.682514,6.861063,-6.657506
1305031908133040896,0.0,0.0,0.0,0.682514,6.861063,-6.657506
1305031908133932032,0.0,0.0,0.0,0.682514,6.861063,-6.657506
1305031908137217024,0.0,0.0,0.0,0.682514,6.885011,-6.657506
1305031908138343936,0.0,0.0,0.0,0.682514,6.885011,-6.657506
1305031908141858048,0.0,0.0,0.0,0.478957,6.885011,-6.657506
1305031908142836992,0.0,0.0,0.0,0.478957,6.885011,-6.657506
1305031908144135936,0.0,0.0,0.0,0.478957,6.885011,-6.657506
1305031908145221888,0.0,0.0,0.0,0.478957,6.885011,-6.657506
1305031908148390144,0.0,0.0,0.0,0.682514,6.956854,-6.657506
1305031908149368064,0.0,0.0,0.0,0.682514,6.956854,-6.657506
1305031908152964096,0.0,0.0,0.0,0.574749,6.861063,-6.561715
1305031908153980928,0.0,0.0,0.0,0.574749,6.861063,-6.561715
1305031908157229824,0.0,0.0,0.0,0.478957,6.861063,-6.465923
1305031908158208000,0.0,0.0,0.0,0.478957,6.861063,-6.465923
1305031908161815808,0.0,0.0,0.0,0.574749,6.861063,-6.274340
1305031908162801152,0.0,0.0,0.0,0.574749,6.861063,-6.274340
1305031908164057088,0.0,0.0,0.0,0.574749,6.861063,-6.274340
1305031908165052928,0.0,0.0,0.0,0.574749,6.861063,-6.274340
1305031908168355072,0.0,0.0,0.0,0.478957,7.052646,-5.903148
1305031908169338112,0.0,0.0,0.0,0.478957,7.052646,-5.903148
1305031908172962048,0.0,0.0,0.0,0.478957,7.148437,-5.986966
1305031908173976064,0.0,0.0,0.0,0.478957,7.148437,-5.986966
1305031908177208064,0.0,0.0,0.0,0.478957,7.244229,-5.843279
1305031908178384896,0.0,0.0,0.0,0.478957,7.244229,-5.843279
1305031908181957888,0.0,0.0,0.0,0.287374,7.292124,-5.603800
1305031908182961920,0.0,0.0,0.0,0.287374,7.292124,-5.603800
1305031908184079872,0.0,0.0,0.0,0.287374,7.292124,-5.603800
1305031908185221888,0.0,0.0,0.0,0.287374,7.292124,-5.603800
1305031908188198144,0.0,0.0,0.0,0.107765,7.435812,-5.412217
1305031908189342976,0.0,0.0,0.0,0.107765,7.435812,-5.412217
1305031908193017856,0.0,0.0,0.0,0.107765,7.531603,-5.316426
1305031908193936128,0.0,0.0,0.0,0.107765,7.531603,-5.316426
1305031908197223936,0.0,0.0,0.0,0.095791,7.627394,-5.124843
1305031908198183936,0.0,0.0,0.0,0.095791,7.627394,-5.124843
1305031908201847040,0.0,0.0,0.0,0.107765,7.675290,-5.172738
1305031908202812928,0.0,0.0,0.0,0.107765,7.675290,-5.172738
1305031908204081920,0.0,0.0,0.0,0.107765,7.675290,-5.172738
1305031908205074944,0.0,0.0,0.0,0.107765,7.675290,-5.172738
1305031908208343040,0.0,0.0,0.0,0.287374,7.627394,-5.412217
1305031908209344000,0.0,0.0,0.0,0.287374,7.627394,-5.412217
1305031908212937216,0.0,0.0,0.0,0.107765,7.723186,-5.508009
1305031908213977088,0.0,0.0,0.0,0.107765,7.723186,-5.508009
1305031908217218048,0.0,0.0,0.0,0.191583,7.435812,-5.508009
1305031908218200064,0.0,0.0,0.0,0.191583,7.435812,-5.508009
1305031908221829888,0.0,0.0,0.0,0.191583,7.268176,-5.699591
1305031908222992896,0.0,0.0,0.0,0.191583,7.268176,-5.699591
1305031908224133888,0.0,0.0,0.0,0.191583,7.268176,-5.699591
1305031908225219840,0.0,0.0,0.0,0.191583,7.268176,-5.699591
1305031908228358144,0.0,0.0,0.0,0.287374,6.956854,-5.986966
1305031908229443072,0.0,0.0,0.0,0.287374,6.956854,-5.986966
1305031908233065984,0.0,0.0,0.0,0.395140,6.669480,-6.274340
1305031908234062080,0.0,0.0,0.0,0.395140,6.669480,-6.274340
1305031908237232896,0.0,0.0,0.0,0.107765,6.525793,-6.657506
1305031908238203904,0.0,0.0,0.0,0.107765,6.525793,-6.657506
1305031908242008064,0.0,0.0,0.0,0.191583,6.501845,-6.657506
1305031908242803968,0.0,0.0,0.0,0.191583,6.501845,-6.657506
1305031908244081920,0.0,0.0,0.0,0.191583,6.501845,-6.657506
1305031908245218048,0.0,0.0,0.0,0.191583,6.501845,-6.657506
1305031908248385024,0.0,0.0,0.0,0.107765,6.477897,-6.849089
1305031908249327872,0.0,0.0,0.0,0.107765,6.477897,-6.849089
1305031908252931072,0.0,0.0,0.0,0.107765,6.489871,-6.849089
1305031908253981184,0.0,0.0,0.0,0.107765,6.489871,-6.849089
1305031908257219072,0.0,0.0,0.0,0.107765,6.669480,-6.849089
1305031908258220032,0.0,0.0,0.0,0.107765,6.669480,-6.849089
1305031908261814016,0.0,0.0,0.0,0.083818,6.813167,-6.705402
1305031908262804992,0.0,0.0,0.0,0.083818,6.813167,-6.705402
1305031908264059136,0.0,0.0,0.0,0.083818,6.813167,-6.705402
1305031908265054976,0.0,0.0,0.0,0.083818,6.813167,-6.705402
1305031908268238080,0.0,0.0,0.0,-0.083818,6.861063,-6.753297
1305031908269352960,0.0,0.0,0.0,-0.083818,6.861063,-6.753297
1305031908272931072,0.0,0.0,0.0,-0.083818,7.052646,-6.609610
1305031908273956096,0.0,0.0,0.0,-0.083818,7.052646,-6.609610
1305031908277210112,0.0,0.0,0.0,-0.191583,7.244229,-6.465923
1305031908278345216,0.0,0.0,0.0,-0.191583,7.244229,-6.465923
1305031908281807872,0.0,0.0,0.0,-0.263426,7.340020,-6.657506
1305031908282993152,0.0,0.0,0.0,-0.263426,7.340020,-6.657506
1305031908284230912,0.0,0.0,0.0,-0.263426,7.340020,-6.657506
1305031908285227008,0.0,0.0,0.0,-0.263426,7.340020,-6.657506
1305031908288358912,0.0,0.0,0.0,-0.083818,7.579499,-6.609610
1305031908289331968,0.0,0.0,0.0,-0.083818,7.579499,-6.609610
1305031908292947968,0.0,0.0,0.0,-0.191583,7.723186,-6.274340
1305031908293935104,0.0,0.0,0.0,-0.191583,7.723186,-6.274340
1305031908297199872,0.0,0.0,0.0,-0.191583,7.675290,-6.274340
1305031908298199808,0.0,0.0,0.0,-0.191583,7.675290,-6.274340
1305031908299730944,0.0,0.0,0.0,-0.191583,7.675290,-6.274340
1305031908300791040,0.0,0.0,0.0,-0.191583,7.675290,-6.274340
1305031908304100864,0.0,0.0,0.0,-0.275400,7.627394,-6.370132
1305031908305236992,0.0,0.0,0.0,-0.275400,7.627394,-6.370132
1305031908308371968,0.0,0.0,0.0,0.011974,7.818977,-6.274340
1305031908309346048,0.0,0.0,0.0,0.011974,7.818977,-6.274340
1305031908312944896,0.0,0.0,0.0,0.095791,7.818977,-6.370132
1305031908314001152,0.0,0.0,0.0,0.095791,7.818977,-6.370132
1305031908317222144,0.0,0.0,0.0,0.095791,7.818977,-6.465923
1305031908318224896,0.0,0.0,0.0,0.095791,7.818977,-6.465923
1305031908321875968,0.0,0.0,0.0,0.095791,7.818977,-6.465923
1305031908322812160,0.0,0.0,0.0,0.095791,7.818977,-6.465923
1305031908323868160,0.0,0.0,0.0,0.095791,7.818977,-6.465923
1305031908327214080,0.0,0.0,0.0,0.107765,7.627394,-6.370132
1305031908328222976,0.0,0.0,0.0,0.107765,7.627394,-6.370132
1305031908331810048,0.0,0.0,0.0,0.095791,7.603447,-6.561715
1305031908332967936,0.0,0.0,0.0,0.095791,7.603447,-6.561715
1305031908334063104,0.0,0.0,0.0,0.095791,7.603447,-6.561715
1305031908335046912,0.0,0.0,0.0,0.095791,7.603447,-6.561715
1305031908338351872,0.0,0.0,0.0,0.287374,7.531603,-6.609610
1305031908339345920,0.0,0.0,0.0,0.287374,7.531603,-6.609610
1305031908342978048,0.0,0.0,0.0,0.119739,7.531603,-6.370132
1305031908343959040,0.0,0.0,0.0,0.119739,7.531603,-6.370132
1305031908347200000,0.0,0.0,0.0,0.143687,7.256203,-6.609610
1305031908348218880,0.0,0.0,0.0,0.143687,7.256203,-6.609610
1305031908351994880,0.0,0.0,0.0,0.095791,7.435812,-6.274340
1305031908352935168,0.0,0.0,0.0,0.095791,7.435812,-6.274340
1305031908354219008,0.0,0.0,0.0,0.095791,7.435812,-6.274340
1305031908355230976,0.0,0.0,0.0,0.095791,7.435812,-6.274340
1305031908358329088,0.0,0.0,0.0,0.107765,7.196333,-6.465923
1305031908359368192,0.0,0.0,0.0,0.107765,7.196333,-6.465923
1305031908362936064,0.0,0.0,0.0,0.095791,7.052646,-6.370132
1305031908363933952,0.0,0.0,0.0,0.095791,7.052646,-6.370132
1305031908367193088,0.0,0.0,0.0,0.059870,7.052646,-6.274340
1305031908368221952,0.0,0.0,0.0,0.059870,7.052646,-6.274340
1305031908371877888,0.0,0.0,0.0,-0.083818,6.885011,-6.465923
1305031908372934144,0.0,0.0,0.0,-0.083818,6.885011,-6.465923
1305031908374209024,0.0,0.0,0.0,-0.083818,6.885011,-6.465923
1305031908375205888,0.0,0.0,0.0,-0.083818,6.885011,-6.465923
1305031908378357760,0.0,0.0,0.0,-0.275400,7.052646,-6.609610
1305031908379343872,0.0,0.0,0.0,-0.275400,7.052646,-6.609610
1305031908382956032,0.0,0.0,0.0,-0.275400,6.956854,-6.465923
1305031908384006144,0.0,0.0,0.0,-0.275400,6.956854,-6.465923
1305031908387227136,0.0,0.0,0.0,-0.275400,7.052646,-6.633558
1305031908388217856,0.0,0.0,0.0,-0.275400,7.052646,-6.633558
1305031908391892992,0.0,0.0,0.0,-0.275400,7.244229,-6.561715
1305031908392980224,0.0,0.0,0.0,-0.275400,7.244229,-6.561715
1305031908394062080,0.0,0.0,0.0,-0.275400,7.244229,-6.561715
1305031908395174912,0.0,0.0,0.0,-0.275400,7.244229,-6.561715
1305031908398341888,0.0,0.0,0.0,-0.275400,7.627394,-6.370132
1305031908399308032,0.0,0.0,0.0,-0.275400,7.627394,-6.370132
1305031908402968832,0.0,0.0,0.0,-0.275400,7.723186,-6.633558
1305031908403956992,0.0,0.0,0.0,-0.275400,7.723186,-6.633558
1305031908407174144,0.0,0.0,0.0,-0.263426,7.818977,-6.657506
1305031908408225024,0.0,0.0,0.0,-0.263426,7.818977,-6.657506
1305031908411848960,0.0,0.0,0.0,-0.191583,8.106352,-6.465923
1305031908412812032,0.0,0.0,0.0,-0.191583,8.106352,-6.465923
1305031908414117120,0.0,0.0,0.0,-0.191583,8.106352,-6.465923
1305031908415220992,0.0,0.0,0.0,-0.191583,8.106352,-6.465923
1305031908418349056,0.0,0.0,0.0,0.059870,8.202143,-6.657506
1305031908419328000,0.0,0.0,0.0,0.059870,8.202143,-6.657506
1305031908422970112,0.0,0.0,0.0,0.107765,8.106352,-6.753297
1305031908423983104,0.0,0.0,0.0,0.107765,8.106352,-6.753297
1305031908427246080,0.0,0.0,0.0,0.107765,8.034508,-6.561715
1305031908428222976,0.0,0.0,0.0,0.107765,8.034508,-6.561715
1305031908431823104,0.0,0.0,0.0,0.143687,8.010560,-6.849089
1305031908432998912,0.0,0.0,0.0,0.143687,8.010560,-6.849089
1305031908433972992,0.0,0.0,0.0,0.143687,8.010560,-6.849089
1305031908437221888,0.0,0.0,0.0,0.095791,7.723186,-6.657506
1305031908438204160,0.0,0.0,0.0,0.095791,7.723186,-6.657506
1305031908441858048,0.0,0.0,0.0,0.011974,7.627394,-6.657506
1305031908442835968,0.0,0.0,0.0,0.011974,7.627394,-6.657506
1305031908444140800,0.0,0.0,0.0,0.011974,7.627394,-6.657506
1305031908445219072,0.0,0.0,0.0,0.011974,7.627394,-6.657506
1305031908448321024,0.0,0.0,0.0,0.107765,7.340020,-6.753297
1305031908449347072,0.0,0.0,0.0,0.107765,7.340020,-6.753297
1305031908452939008,0.0,0.0,0.0,0.095791,7.340020,-6.705402
1305031908453984000,0.0,0.0,0.0,0.095791,7.340020,-6.705402
1305031908457221888,0.0,0.0,0.0,0.107765,7.244229,-6.849089
1305031908458203904,0.0,0.0,0.0,0.107765,7.244229,-6.849089
1305031908461848064,0.0,0.0,0.0,0.107765,7.292124,-6.849089
1305031908462802944,0.0,0.0,0.0,0.107765,7.292124,-6.849089
1305031908464070144,0.0,0.0,0.0,0.107765,7.292124,-6.849089
1305031908465182976,0.0,0.0,0.0,0.107765,7.292124,-6.849089
1305031908468350976,0.0,0.0,0.0,0.095791,7.627394,-6.753297
1305031908469355008,0.0,0.0,0.0,0.095791,7.627394,-6.753297
1305031908472944128,0.0,0.0,0.0,0.107765,7.675290,-6.753297
1305031908474011904,0.0,0.0,0.0,0.107765,7.675290,-6.753297
1305031908477204992,0.0,0.0,0.0,0.287374,7.651342,-6.849089
1305031908478348032,0.0,0.0,0.0,0.287374,7.651342,-6.849089
1305031908482014976,0.0,0.0,0.0,0.395140,7.818977,-6.849089
1305031908482990080,0.0,0.0,0.0,0.395140,7.818977,-6.849089
1305031908484222976,0.0,0.0,0.0,0.395140,7.818977,-6.849089
1305031908485202944,0.0,0.0,0.0,0.395140,7.818977,-6.849089
1305031908488393984,0.0,0.0,0.0,0.526853,7.818977,-7.064620
1305031908489350144,0.0,0.0,0.0,0.526853,7.818977,-7.064620
1305031908493051136,0.0,0.0,0.0,0.682514,7.675290,-7.040672
1305031908493948928,0.0,0.0,0.0,0.682514,7.675290,-7.040672
1305031908497359104,0.0,0.0,0.0,0.850149,7.986612,-6.753297
1305031908498321152,0.0,0.0,0.0,0.850149,7.986612,-6.753297
1305031908501967872,0.0,0.0,0.0,0.826201,7.914769,-6.992776
1305031908502945024,0.0,0.0,0.0,0.826201,7.914769,-6.992776
1305031908504223232,0.0,0.0,0.0,0.826201,7.914769,-6.992776
1305031908505191936,0.0,0.0,0.0,0.826201,7.914769,-6.992776
1305031908508375040,0.0,0.0,0.0,0.862123,8.010560,-6.944880
1305031908509366016,0.0,0.0,0.0,0.862123,8.010560,-6.944880
1305031908512953088,0.0,0.0,0.0,1.053706,8.010560,-6.944880
1305031908514008064,0.0,0.0,0.0,1.053706,8.010560,-6.944880
1305031908517088000,0.0,0.0,0.0,0.886071,7.998586,-6.849089
1305031908518232064,0.0,0.0,0.0,0.886071,7.998586,-6.849089
1305031908519346944,0.0,0.0,0.0,0.886071,7.998586,-6.849089
1305031908520498944,0.0,0.0,0.0,0.886071,7.998586,-6.849089
1305031908524017152,0.0,0.0,0.0,0.862123,7.818977,-6.657506
1305031908525095936,0.0,0.0,0.0,0.862123,7.818977,-6.657506
1305031908528204800,0.0,0.0,0.0,0.682514,7.675290,-6.465923
1305031908529304064,0.0,0.0,0.0,0.682514,7.675290,-6.465923
1305031908532962048,0.0,0.0,0.0,0.778306,7.818977,-6.561715
1305031908533942016,0.0,0.0,0.0,0.778306,7.818977,-6.561715
1305031908537208064,0.0,0.0,0.0,0.778306,7.627394,-6.657506
1305031908538224896,0.0,0.0,0.0,0.778306,7.627394,-6.657506
1305031908539329024,0.0,0.0,0.0,0.778306,7.627394,-6.657506
1305031908540563200,0.0,0.0,0.0,0.778306,7.627394,-6.657506
1305031908544096000,0.0,0.0,0.0,0.682514,7.435812,-6.657506
1305031908545100032,0.0,0.0,0.0,0.682514,7.435812,-6.657506
1305031908548378112,0.0,0.0,0.0,0.682514,7.531603,-6.753297
1305031908549350144,0.0,0.0,0.0,0.682514,7.531603,-6.753297
1305031908552939776,0.0,0.0,0.0,0.682514,7.579499,-6.657506
1305031908553974016,0.0,0.0,0.0,0.682514,7.579499,-6.657506
1305031908557220096,0.0,0.0,0.0,0.778306,7.435812,-7.040672
1305031908558356992,0.0,0.0,0.0,0.778306,7.435812,-7.040672
1305031908561816064,0.0,0.0,0.0,0.850149,7.244229,-7.136463
1305031908562941952,0.0,0.0,0.0,0.850149,7.244229,-7.136463
1305031908564070912,0.0,0.0,0.0,0.850149,7.244229,-7.136463
1305031908565187840,0.0,0.0,0.0,0.850149,7.244229,-7.136463
1305031908568349952,0.0,0.0,0.0,0.874097,7.244229,-7.423838
1305031908569331968,0.0,0.0,0.0,0.874097,7.244229,-7.423838
1305031908572945152,0.0,0.0,0.0,0.957915,7.196333,-7.471733
1305031908573987072,0.0,0.0,0.0,0.957915,7.196333,-7.471733
1305031908577207040,0.0,0.0,0.0,0.910019,7.148437,-7.807003
1305031908578345984,0.0,0.0,0.0,0.910019,7.148437,-7.807003
1305031908581958912,0.0,0.0,0.0,0.862123,7.052646,-8.094378
1305031908582973952,0.0,0.0,0.0,0.862123,7.052646,-8.094378
1305031908584091904,0.0,0.0,0.0,0.862123,7.052646,-8.094378
1305031908585223936,0.0,0.0,0.0,0.862123,7.052646,-8.094378
1305031908588374016,0.0,0.0,0.0,0.886071,6.873037,-8.190169
1305031908589384960,0.0,0.0,0.0,0.886071,6.873037,-8.190169
1305031908592984064,0.0,0.0,0.0,0.862123,6.861063,-8.190169
1305031908593946880,0.0,0.0,0.0,0.862123,6.861063,-8.190169
1305031908597230848,0.0,0.0,0.0,0.910019,6.849089,-7.998586
1305031908598187008,0.0,0.0,0.0,0.910019,6.849089,-7.998586
1305031908601818112,0.0,0.0,0.0,0.862123,6.765271,-8.094378
1305031908602793984,0.0,0.0,0.0,0.862123,6.765271,-8.094378
1305031908604100096,0.0,0.0,0.0,0.862123,6.765271,-8.094378
1305031908605196032,0.0,0.0,0.0,0.862123,6.765271,-8.094378
1305031908608346880,0.0,0.0,0.0,0.910019,6.573688,-7.902795
1305031908609345024,0.0,0.0,0.0,0.910019,6.573688,-7.902795
1305031908612983040,0.0,0.0,0.0,0.910019,6.477897,-7.783056
1305031908613982976,0.0,0.0,0.0,0.910019,6.477897,-7.783056
1305031908617204992,0.0,0.0,0.0,1.053706,6.573688,-7.423838
1305031908618350080,0.0,0.0,0.0,1.053706,6.573688,-7.423838
1305031908621844992,0.0,0.0,0.0,1.053706,6.525793,-7.423838
1305031908622853120,0.0,0.0,0.0,1.053706,6.525793,-7.423838
1305031908624109056,0.0,0.0,0.0,1.053706,6.525793,-7.423838
1305031908625219072,0.0,0.0,0.0,1.053706,6.525793,-7.423838
1305031908628328192,0.0,0.0,0.0,0.862123,6.765271,-7.232255
1305031908629314048,0.0,0.0,0.0,0.862123,6.765271,-7.232255
1305031908632931840,0.0,0.0,0.0,0.862123,6.669480,-7.088568
1305031908633938944,0.0,0.0,0.0,0.862123,6.669480,-7.088568
1305031908637208064,0.0,0.0,0.0,0.862123,6.861063,-7.232255
1305031908638232832,0.0,0.0,0.0,0.862123,6.861063,-7.232255
1305031908641858048,0.0,0.0,0.0,0.874097,6.861063,-7.136463
1305031908643001088,0.0,0.0,0.0,0.874097,6.861063,-7.136463
1305031908644082176,0.0,0.0,0.0,0.874097,6.861063,-7.136463
1305031908645078784,0.0,0.0,0.0,0.874097,6.861063,-7.136463
1305031908648393984,0.0,0.0,0.0,1.053706,6.861063,-7.423838
1305031908649372928,0.0,0.0,0.0,1.053706,6.861063,-7.423838
1305031908652941056,0.0,0.0,0.0,1.257263,7.148437,-7.519629
1305031908654095872,0.0,0.0,0.0,1.257263,7.148437,-7.519629
1305031908657324032,0.0,0.0,0.0,1.053706,7.052646,-7.759108
1305031908658349056,0.0,0.0,0.0,1.053706,7.052646,-7.759108
1305031908661818880,0.0,0.0,0.0,0.862123,6.861063,-7.795029
1305031908662929920,0.0,0.0,0.0,0.862123,6.861063,-7.795029
1305031908664061184,0.0,0.0,0.0,0.862123,6.861063,-7.795029
1305031908665177088,0.0,0.0,0.0,0.862123,6.861063,-7.795029
1305031908668345856,0.0,0.0,0.0,0.862123,6.765271,-7.998586
1305031908669331200,0.0,0.0,0.0,0.862123,6.765271,-7.998586
1305031908672952064,0.0,0.0,0.0,0.862123,6.861063,-8.178195
1305031908673976832,0.0,0.0,0.0,0.862123,6.861063,-8.178195
1305031908677206016,0.0,0.0,0.0,0.862123,6.861063,-8.381752
1305031908678348032,0.0,0.0,0.0,0.862123,6.861063,-8.381752
1305031908681978112,0.0,0.0,0.0,0.862123,6.837115,-8.669126
1305031908683001088,0.0,0.0,0.0,0.862123,6.837115,-8.669126
1305031908684251904,0.0,0.0,0.0,0.862123,6.837115,-8.669126
1305031908685223936,0.0,0.0,0.0,0.862123,6.837115,-8.669126
1305031908688386816,0.0,0.0,0.0,1.053706,7.052646,-9.339667
1305031908689369088,0.0,0.0,0.0,1.053706,7.052646,-9.339667
1305031908692954112,0.0,0.0,0.0,1.053706,7.435812,-9.243875
1305031908694063872,0.0,0.0,0.0,1.053706,7.435812,-9.243875
1305031908697221888,0.0,0.0,0.0,0.957915,7.244229,-9.339667
1305031908698316032,0.0,0.0,0.0,0.957915,7.244229,-9.339667
1305031908701852160,0.0,0.0,0.0,0.957915,7.244229,-9.315719
1305031908702803968,0.0,0.0,0.0,0.957915,7.244229,-9.315719
1305031908704112128,0.0,0.0,0.0,0.957915,7.244229,-9.315719
1305031908705225984,0.0,0.0,0.0,0.957915,7.244229,-9.315719
1305031908708328960,0.0,0.0,0.0,1.257263,7.244229,-9.339667
1305031908709361920,0.0,0.0,0.0,1.257263,7.244229,-9.339667
1305031908712937216,0.0,0.0,0.0,1.448846,7.244229,-9.339667
1305031908713959936,0.0,0.0,0.0,1.448846,7.244229,-9.339667
1305031908717235200,0.0,0.0,0.0,1.257263,7.292124,-8.968475
1305031908718348032,0.0,0.0,0.0,1.257263,7.292124,-8.968475
1305031908721859840,0.0,0.0,0.0,1.209367,7.148437,-8.956501
1305031908722812928,0.0,0.0,0.0,1.209367,7.148437,-8.956501
1305031908724136192,0.0,0.0,0.0,1.209367,7.148437,-8.956501
1305031908725225984,0.0,0.0,0.0,1.209367,7.148437,-8.956501
1305031908728354048,0.0,0.0,0.0,1.209367,7.244229,-8.764918
1305031908729313024,0.0,0.0,0.0,1.209367,7.244229,-8.764918
1305031908732999168,0.0,0.0,0.0,1.209367,7.052646,-8.956501
1305031908733942016,0.0,0.0,0.0,1.209367,7.052646,-8.956501
1305031908737257984,0.0,0.0,0.0,1.257263,6.861063,-8.956501
1305031908738245120,0.0,0.0,0.0,1.257263,6.861063,-8.956501
1305031908741947904,0.0,0.0,0.0,1.257263,6.908959,-8.573335
1305031908742973952,0.0,0.0,0.0,1.257263,6.908959,-8.573335
1305031908744209152,0.0,0.0,0.0,1.257263,6.908959,-8.573335
1305031908745209088,0.0,0.0,0.0,1.257263,6.908959,-8.573335
1305031908748349952,0.0,0.0,0.0,1.257263,6.861063,-8.573335
1305031908749350144,0.0,0.0,0.0,1.257263,6.861063,-8.573335
1305031908752942080,0.0,0.0,0.0,1.257263,6.765271,-8.381752
1305031908753993984,0.0,0.0,0.0,1.257263,6.765271,-8.381752
1305031908757224192,0.0,0.0,0.0,1.053706,6.765271,-8.597283
1305031908758349824,0.0,0.0,0.0,1.053706,6.765271,-8.597283
1305031908761821952,0.0,0.0,0.0,0.862123,6.861063,-8.573335
1305031908762808064,0.0,0.0,0.0,0.862123,6.861063,-8.573335
1305031908764059904,0.0,0.0,0.0,0.862123,6.861063,-8.573335
1305031908765068032,0.0,0.0,0.0,0.862123,6.861063,-8.573335
1305031908768336896,0.0,0.0,0.0,0.874097,7.196333,-8.573335
1305031908769330944,0.0,0.0,0.0,0.874097,7.196333,-8.573335
1305031908772961024,0.0,0.0,0.0,0.957915,7.244229,-8.621231
1305031908773961984,0.0,0.0,0.0,0.957915,7.244229,-8.621231
1305031908777257984,0.0,0.0,0.0,0.886071,7.244229,-8.585309
1305031908778201088,0.0,0.0,0.0,0.886071,7.244229,-8.585309
1305031908781830144,0.0,0.0,0.0,0.862123,7.292124,-8.669126
1305031908782835968,0.0,0.0,0.0,0.862123,7.292124,-8.669126
1305031908784125184,0.0,0.0,0.0,0.862123,7.292124,-8.669126
1305031908785222144,0.0,0.0,0.0,0.862123,7.292124,-8.669126
1305031908788346880,0.0,0.0,0.0,0.778306,7.579499,-8.573335
1305031908789377024,0.0,0.0,0.0,0.778306,7.579499,-8.573335
1305031908792982016,0.0,0.0,0.0,0.850149,7.627394,-8.381752
1305031908793977856,0.0,0.0,0.0,0.850149,7.627394,-8.381752
1305031908797380864,0.0,0.0,0.0,0.862123,7.627394,-8.573335
1305031908798185984,0.0,0.0,0.0,0.862123,7.627394,-8.573335
1305031908801816064,0.0,0.0,0.0,0.682514,7.675290,-8.285961
1305031908802934016,0.0,0.0,0.0,0.682514,7.675290,-8.285961
1305031908804222208,0.0,0.0,0.0,0.682514,7.675290,-8.285961
1305031908805195008,0.0,0.0,0.0,0.682514,7.675290,-8.285961
1305031908808350976,0.0,0.0,0.0,0.682514,7.723186,-7.998586
1305031908809332992,0.0,0.0,0.0,0.682514,7.723186,-7.998586
1305031908812942080,0.0,0.0,0.0,0.682514,7.627394,-7.807003
1305031908813977088,0.0,0.0,0.0,0.682514,7.627394,-7.807003
1305031908817241856,0.0,0.0,0.0,0.862123,7.627394,-7.807003
1305031908818219008,0.0,0.0,0.0,0.862123,7.627394,-7.807003
1305031908821858048,0.0,0.0,0.0,0.862123,7.627394,-7.615421
1305031908822803968,0.0,0.0,0.0,0.862123,7.627394,-7.615421
1305031908824143872,0.0,0.0,0.0,0.862123,7.627394,-7.615421
1305031908825121024,0.0,0.0,0.0,0.862123,7.627394,-7.615421
1305031908828358912,0.0,0.0,0.0,0.862123,7.627394,-7.423838
1305031908829314048,0.0,0.0,0.0,0.862123,7.627394,-7.423838
1305031908832942848,0.0,0.0,0.0,0.862123,7.627394,-7.375942
1305031908833940992,0.0,0.0,0.0,0.862123,7.627394,-7.375942
1305031908837257984,0.0,0.0,0.0,0.862123,7.579499,-7.040672
1305031908838356992,0.0,0.0,0.0,0.862123,7.579499,-7.040672
1305031908841830912,0.0,0.0,0.0,1.053706,7.340020,-7.136463
1305031908842816000,0.0,0.0,0.0,1.053706,7.340020,-7.136463
1305031908844119040,0.0,0.0,0.0,1.053706,7.340020,-7.136463
1305031908845222912,0.0,0.0,0.0,1.053706,7.340020,-7.136463
1305031908848324096,0.0,0.0,0.0,1.053706,7.244229,-7.064620
1305031908849352960,0.0,0.0,0.0,1.053706,7.244229,-7.064620
1305031908853135104,0.0,0.0,0.0,1.245289,6.861063,-7.399890
1305031908854098944,0.0,0.0,0.0,1.245289,6.861063,-7.399890
1305031908857347840,0.0,0.0,0.0,1.257263,6.477897,-7.232255
1305031908858359040,0.0,0.0,0.0,1.257263,6.477897,-7.232255
1305031908861815040,0.0,0.0,0.0,1.053706,6.525793,-7.040672
1305031908862934016,0.0,0.0,0.0,1.053706,6.525793,-7.040672
1305031908864061952,0.0,0.0,0.0,1.053706,6.525793,-7.040672
1305031908865178112,0.0,0.0,0.0,1.053706,6.525793,-7.040672
1305031908868195072,0.0,0.0,0.0,1.053706,6.430001,-7.136463
1305031908869334016,0.0,0.0,0.0,1.053706,6.430001,-7.136463
1305031908872975104,0.0,0.0,0.0,0.862123,6.669480,-6.849089
1305031908874100992,0.0,0.0,0.0,0.862123,6.669480,-6.849089
1305031908877257984,0.0,0.0,0.0,1.053706,6.813167,-6.849089
1305031908878225152,0.0,0.0,0.0,1.053706,6.813167,-6.849089
1305031908881850112,0.0,0.0,0.0,1.257263,6.765271,-7.040672
1305031908882849024,0.0,0.0,0.0,1.257263,6.765271,-7.040672
1305031908884143104,0.0,0.0,0.0,1.257263,6.765271,-7.040672
1305031908885085184,0.0,0.0,0.0,1.257263,6.765271,-7.040672
1305031908888397056,0.0,0.0,0.0,1.053706,7.052646,-7.040672
1305031908889352192,0.0,0.0,0.0,1.053706,7.052646,-7.040672
1305031908892955904,0.0,0.0,0.0,1.053706,6.861063,-6.944880
1305031908893976832,0.0,0.0,0.0,1.053706,6.861063,-6.944880
1305031908897236224,0.0,0.0,0.0,0.910019,6.861063,-7.040672
1305031908898190848,0.0,0.0,0.0,0.910019,6.861063,-7.040672
1305031908901817088,0.0,0.0,0.0,1.053706,6.861063,-7.016724
1305031908902811904,0.0,0.0,0.0,1.053706,6.861063,-7.016724
1305031908904109056,0.0,0.0,0.0,1.053706,6.861063,-7.016724
1305031908905229056,0.0,0.0,0.0,1.053706,6.861063,-7.016724
1305031908908206080,0.0,0.0,0.0,1.233315,7.052646,-7.040672
1305031908909352192,0.0,0.0,0.0,1.233315,7.052646,-7.040672
1305031908912848896,0.0,0.0,0.0,1.209367,7.148437,-7.136463
1305031908913976832,0.0,0.0,0.0,1.209367,7.148437,-7.136463
1305031908917254912,0.0,0.0,0.0,1.269237,7.052646,-7.423838
1305031908918208000,0.0,0.0,0.0,1.269237,7.052646,-7.423838
1305031908919492864,0.0,0.0,0.0,1.269237,7.052646,-7.423838
1305031908920825856,0.0,0.0,0.0,1.269237,7.052646,-7.423838
1305031908924141824,0.0,0.0,0.0,1.269237,7.148437,-7.435812
1305031908925100032,0.0,0.0,0.0,1.269237,7.148437,-7.435812
1305031908928363008,0.0,0.0,0.0,1.161471,7.220281,-7.136463
1305031908929330176,0.0,0.0,0.0,1.161471,7.220281,-7.136463
1305031908932950016,0.0,0.0,0.0,1.053706,7.196333,-7.040672
1305031908933940992,0.0,0.0,0.0,1.053706,7.196333,-7.040672
1305031908937221888,0.0,0.0,0.0,1.053706,6.908959,-6.849089
1305031908938400000,0.0,0.0,0.0,1.053706,6.908959,-6.849089
1305031908941832960,0.0,0.0,0.0,1.053706,6.861063,-6.753297
1305031908942799104,0.0,0.0,0.0,1.053706,6.861063,-6.753297
1305031908944088064,0.0,0.0,0.0,1.053706,6.861063,-6.753297
1305031908945229056,0.0,0.0,0.0,1.053706,6.861063,-6.753297
1305031908948211968,0.0,0.0,0.0,1.257263,6.861063,-6.753297
1305031908949351168,0.0,0.0,0.0,1.257263,6.861063,-6.753297
1305031908952953088,0.0,0.0,0.0,1.448846,6.861063,-6.657506
1305031908953979136,0.0,0.0,0.0,1.448846,6.861063,-6.657506
1305031908957222912,0.0,0.0,0.0,1.448846,7.052646,-6.849089
1305031908958208000,0.0,0.0,0.0,1.448846,7.052646,-6.849089
1305031908959728896,0.0,0.0,0.0,1.448846,7.052646,-6.849089
1305031908960834048,0.0,0.0,0.0,1.448846,7.052646,-6.849089
1305031908964098816,0.0,0.0,0.0,1.341080,6.489871,-6.944880
1305031908965181184,0.0,0.0,0.0,1.341080,6.489871,-6.944880
1305031908968285184,0.0,0.0,0.0,1.269237,6.477897,-6.944880
1305031908969362944,0.0,0.0,0.0,1.269237,6.477897,-6.944880
1305031908972979968,0.0,0.0,0.0,1.544637,6.286314,-7.040672
1305031908974000896,0.0,0.0,0.0,1.544637,6.286314,-7.040672
1305031908977210880,0.0,0.0,0.0,1.448846,6.190523,-6.944880
1305031908978212096,0.0,0.0,0.0,1.448846,6.190523,-6.944880
1305031908981852928,0.0,0.0,0.0,1.341080,6.106705,-7.040672
1305031908982835968,0.0,0.0,0.0,1.341080,6.106705,-7.040672
1305031908984143104,0.0,0.0,0.0,1.341080,6.106705,-7.040672
1305031908985224960,0.0,0.0,0.0,1.341080,6.106705,-7.040672
1305031908988331008,0.0,0.0,0.0,1.544637,6.094731,-7.064620
1305031908989391104,0.0,0.0,0.0,1.544637,6.094731,-7.064620
1305031908992961024,0.0,0.0,0.0,1.628455,6.190523,-7.040672
1305031908994019072,0.0,0.0,0.0,1.628455,6.190523,-7.040672
1305031908997236992,0.0,0.0,0.0,1.293185,6.094731,-7.040672
1305031908998188032,0.0,0.0,0.0,1.293185,6.094731,-7.040672
1305031909001816064,0.0,0.0,0.0,1.293185,6.094731,-7.016724
1305031909002806784,0.0,0.0,0.0,1.293185,6.094731,-7.016724
1305031909003855104,0.0,0.0,0.0,1.293185,6.094731,-7.016724
1305031909007173888,0.0,0.0,0.0,1.257263,6.286314,-6.849089
1305031909008211968,0.0,0.0,0.0,1.257263,6.286314,-6.849089
1305031909011876096,0.0,0.0,0.0,1.448846,6.382106,-6.849089
1305031909012818176,0.0,0.0,0.0,1.448846,6.382106,-6.849089
1305031909014107904,0.0,0.0,0.0,1.448846,6.382106,-6.849089
1305031909015079936,0.0,0.0,0.0,1.448846,6.382106,-6.849089
1305031909018334976,0.0,0.0,0.0,1.257263,6.669480,-6.465923
1305031909019486976,0.0,0.0,0.0,1.257263,6.669480,-6.465923
1305031909022979072,0.0,0.0,0.0,1.257263,6.908959,-6.657506
1305031909023938048,0.0,0.0,0.0,1.257263,6.908959,-6.657506
1305031909027225088,0.0,0.0,0.0,1.293185,6.956854,-6.657506
1305031909028214016,0.0,0.0,0.0,1.293185,6.956854,-6.657506
1305031909031860224,0.0,0.0,0.0,1.257263,7.148437,-6.753297
1305031909032805888,0.0,0.0,0.0,1.257263,7.148437,-6.753297
1305031909033814016,0.0,0.0,0.0,1.257263,7.148437,-6.753297
1305031909037224960,0.0,0.0,0.0,1.257263,7.052646,-7.040672
1305031909038209792,0.0,0.0,0.0,1.257263,7.052646,-7.040672
1305031909041976832,0.0,0.0,0.0,1.341080,6.861063,-7.328046
1305031909042973952,0.0,0.0,0.0,1.341080,6.861063,-7.328046
1305031909044228096,0.0,0.0,0.0,1.341080,6.861063,-7.328046
1305031909045231104,0.0,0.0,0.0,1.341080,6.861063,-7.328046
1305031909048363008,0.0,0.0,0.0,1.293185,6.501845,-7.807003
1305031909049460992,0.0,0.0,0.0,1.293185,6.501845,-7.807003
1305031909052956160,0.0,0.0,0.0,1.448846,6.430001,-7.902795
1305031909054102016,0.0,0.0,0.0,1.448846,6.430001,-7.902795
1305031909057332992,0.0,0.0,0.0,1.448846,6.142627,-8.094378
1305031909058347008,0.0,0.0,0.0,1.448846,6.142627,-8.094378
1305031909061819904,0.0,0.0,0.0,1.341080,6.094731,-7.998586
1305031909062946048,0.0,0.0,0.0,1.341080,6.094731,-7.998586
1305031909064065024,0.0,0.0,0.0,1.341080,6.094731,-7.998586
1305031909065186048,0.0,0.0,0.0,1.341080,6.094731,-7.998586
1305031909068212992,0.0,0.0,0.0,1.053706,6.094731,-7.902795
1305031909069353216,0.0,0.0,0.0,1.053706,6.094731,-7.902795
1305031909072948992,0.0,0.0,0.0,0.910019,6.190523,-7.411864
1305031909073967104,0.0,0.0,0.0,0.910019,6.190523,-7.411864
1305031909077332992,0.0,0.0,0.0,0.862123,6.430001,-7.040672
1305031909078358016,0.0,0.0,0.0,0.862123,6.430001,-7.040672
1305031909082014208,0.0,0.0,0.0,0.957915,6.477897,-6.849089
1305031909083020800,0.0,0.0,0.0,0.957915,6.477897,-6.849089
1305031909084269056,0.0,0.0,0.0,0.957915,6.477897,-6.849089
1305031909085211904,0.0,0.0,0.0,0.957915,6.477897,-6.849089
1305031909088391168,0.0,0.0,0.0,1.053706,6.861063,-6.370132
1305031909089516032,0.0,0.0,0.0,1.053706,6.861063,-6.370132
1305031909093096960,0.0,0.0,0.0,0.886071,7.244229,-6.178549
1305031909094142976,0.0,0.0,0.0,0.886071,7.244229,-6.178549
1305031909097326080,0.0,0.0,0.0,1.053706,7.435812,-5.891174
1305031909098305024,0.0,0.0,0.0,1.053706,7.435812,-5.891174
1305031909101830912,0.0,0.0,0.0,1.053706,7.579499,-5.699591
1305031909102961920,0.0,0.0,0.0,1.053706,7.579499,-5.699591
1305031909104225024,0.0,0.0,0.0,1.053706,7.579499,-5.699591
1305031909105230080,0.0,0.0,0.0,1.053706,7.579499,-5.699591
1305031909108246016,0.0,0.0,0.0,1.053706,7.675290,-5.699591
1305031909109360896,0.0,0.0,0.0,1.053706,7.675290,-5.699591
1305031909112817920,0.0,0.0,0.0,1.053706,7.818977,-5.699591
1305031909113975040,0.0,0.0,0.0,1.053706,7.818977,-5.699591
1305031909117104128,0.0,0.0,0.0,1.257263,7.818977,-5.699591
1305031909118235136,0.0,0.0,0.0,1.257263,7.818977,-5.699591
1305031909119373056,0.0,0.0,0.0,1.257263,7.818977,-5.699591
1305031909120371200,0.0,0.0,0.0,1.257263,7.818977,-5.699591
1305031909124107008,0.0,0.0,0.0,1.257263,7.651342,-6.178549
1305031909125120000,0.0,0.0,0.0,1.257263,7.651342,-6.178549
1305031909128353024,0.0,0.0,0.0,1.161471,7.723186,-6.465923
1305031909129317888,0.0,0.0,0.0,1.161471,7.723186,-6.465923
1305031909132945920,0.0,0.0,0.0,1.257263,7.340020,-6.849089
1305031909134066944,0.0,0.0,0.0,1.257263,7.340020,-6.849089
1305031909137271808,0.0,0.0,0.0,1.053706,7.244229,-6.849089
1305031909138252032,0.0,0.0,0.0,1.053706,7.244229,-6.849089
1305031909141881856,0.0,0.0,0.0,1.245289,7.148437,-7.136463
1305031909142808064,0.0,0.0,0.0,1.245289,7.148437,-7.136463
1305031909144116992,0.0,0.0,0.0,1.245289,7.148437,-7.136463
1305031909145275136,0.0,0.0,0.0,1.245289,7.148437,-7.136463
1305031909148404992,0.0,0.0,0.0,0.910019,6.956854,-7.423838
1305031909149337088,0.0,0.0,0.0,0.910019,6.956854,-7.423838
1305031909152955136,0.0,0.0,0.0,0.826201,6.861063,-7.328046
1305031909154100992,0.0,0.0,0.0,0.826201,6.861063,-7.328046
1305031909157232128,0.0,0.0,0.0,0.502905,6.861063,-7.040672
1305031909158190848,0.0,0.0,0.0,0.502905,6.861063,-7.040672
1305031909161820928,0.0,0.0,0.0,0.526853,6.669480,-6.849089
1305031909162807040,0.0,0.0,0.0,0.526853,6.669480,-6.849089
1305031909164064768,0.0,0.0,0.0,0.526853,6.669480,-6.849089
1305031909165062912,0.0,0.0,0.0,0.526853,6.669480,-6.849089
1305031909168359936,0.0,0.0,0.0,0.502905,6.956854,-6.370132
1305031909169477888,0.0,0.0,0.0,0.502905,6.956854,-6.370132
1305031909172941824,0.0,0.0,0.0,0.682514,7.052646,-6.322236
1305031909174104832,0.0,0.0,0.0,0.682514,7.052646,-6.322236
1305031909177350144,0.0,0.0,0.0,0.574749,7.292124,-5.986966
1305031909178349056,0.0,0.0,0.0,0.574749,7.292124,-5.986966
1305031909181988096,0.0,0.0,0.0,0.862123,7.268176,-6.082757
1305031909182977024,0.0,0.0,0.0,0.862123,7.268176,-6.082757
1305031909184228864,0.0,0.0,0.0,0.862123,7.268176,-6.082757
1305031909185211904,0.0,0.0,0.0,0.862123,7.268176,-6.082757
1305031909188397056,0.0,0.0,0.0,1.053706,7.435812,-5.891174
1305031909189337088,0.0,0.0,0.0,1.053706,7.435812,-5.891174
1305031909192948224,0.0,0.0,0.0,1.161471,7.435812,-5.843279
1305031909193961984,0.0,0.0,0.0,1.161471,7.435812,-5.843279
1305031909197192960,0.0,0.0,0.0,1.257263,7.244229,-5.939070
1305031909198193152,0.0,0.0,0.0,1.257263,7.244229,-5.939070
1305031909201943040,0.0,0.0,0.0,1.293185,7.052646,-6.082757
1305031909202945024,0.0,0.0,0.0,1.293185,7.052646,-6.082757
1305031909204227072,0.0,0.0,0.0,1.293185,7.052646,-6.082757
1305031909205193984,0.0,0.0,0.0,1.293185,7.052646,-6.082757
1305031909208379904,0.0,0.0,0.0,1.640429,6.908959,-6.274340
1305031909209334016,0.0,0.0,0.0,1.640429,6.908959,-6.274340
1305031909212935936,0.0,0.0,0.0,1.724246,6.861063,-6.274340
1305031909213972992,0.0,0.0,0.0,1.724246,6.861063,-6.274340
1305031909217228800,0.0,0.0,0.0,1.820038,6.861063,-6.465923
1305031909218354944,0.0,0.0,0.0,1.820038,6.861063,-6.465923
1305031909221838080,0.0,0.0,0.0,1.820038,6.573688,-6.465923
1305031909222873856,0.0,0.0,0.0,1.820038,6.573688,-6.465923
1305031909224084992,0.0,0.0,0.0,1.820038,6.573688,-6.465923
1305031909225227008,0.0,0.0,0.0,1.820038,6.573688,-6.465923
1305031909228359936,0.0,0.0,0.0,1.592533,6.382106,-6.465923
1305031909229332992,0.0,0.0,0.0,1.592533,6.382106,-6.465923
1305031909233065984,0.0,0.0,0.0,1.341080,6.142627,-6.465923
1305031909233944064,0.0,0.0,0.0,1.341080,6.142627,-6.465923
1305031909237210880,0.0,0.0,0.0,0.957915,6.286314,-6.370132
1305031909238348032,0.0,0.0,0.0,0.957915,6.286314,-6.370132
1305031909241838080,0.0,0.0,0.0,0.490931,6.286314,-6.298288
1305031909242810112,0.0,0.0,0.0,0.490931,6.286314,-6.298288
1305031909244103936,0.0,0.0,0.0,0.490931,6.286314,-6.298288
1305031909245223168,0.0,0.0,0.0,0.490931,6.286314,-6.298288
1305031909248354816,0.0,0.0,0.0,0.287374,6.525793,-6.274340
1305031909249372928,0.0,0.0,0.0,0.287374,6.525793,-6.274340
1305031909252960000,0.0,0.0,0.0,0.191583,6.861063,-6.082757
1305031909254099968,0.0,0.0,0.0,0.191583,6.861063,-6.082757
1305031909257356800,0.0,0.0,0.0,0.107765,7.148437,-5.891174
1305031909258336000,0.0,0.0,0.0,0.107765,7.148437,-5.891174
1305031909261948160,0.0,0.0,0.0,0.191583,7.435812,-5.795383
1305031909262932992,0.0,0.0,0.0,0.191583,7.435812,-5.795383
1305031909264189952,0.0,0.0,0.0,0.191583,7.435812,-5.795383
1305031909265181184,0.0,0.0,0.0,0.191583,7.435812,-5.795383
1305031909268342016,0.0,0.0,0.0,0.443035,7.914769,-5.795383
1305031909269336064,0.0,0.0,0.0,0.443035,7.914769,-5.795383
1305031909272936960,0.0,0.0,0.0,0.478957,8.010560,-5.699591
1305031909273979904,0.0,0.0,0.0,0.478957,8.010560,-5.699591
1305031909277210112,0.0,0.0,0.0,0.682514,8.393726,-5.699591
1305031909278350080,0.0,0.0,0.0,0.682514,8.393726,-5.699591
1305031909282020096,0.0,0.0,0.0,0.862123,8.489518,-5.603800
1305031909282990080,0.0,0.0,0.0,0.862123,8.489518,-5.603800
1305031909284281088,0.0,0.0,0.0,0.862123,8.489518,-5.603800
1305031909285209856,0.0,0.0,0.0,0.862123,8.489518,-5.603800
1305031909288392960,0.0,0.0,0.0,1.257263,8.585309,-5.891174
1305031909289403904,0.0,0.0,0.0,1.257263,8.585309,-5.891174
1305031909292979968,0.0,0.0,0.0,1.257263,8.776892,-5.699591
1305031909294109952,0.0,0.0,0.0,1.257263,8.776892,-5.699591
1305031909297199104,0.0,0.0,0.0,1.448846,8.585309,-5.699591
1305031909298192896,0.0,0.0,0.0,1.448846,8.585309,-5.699591
1305031909301854976,0.0,0.0,0.0,1.257263,8.585309,-5.316426
1305031909302812160,0.0,0.0,0.0,1.257263,8.585309,-5.316426
1305031909304090112,0.0,0.0,0.0,1.257263,8.585309,-5.316426
1305031909305227008,0.0,0.0,0.0,1.257263,8.585309,-5.316426
1305031909308353792,0.0,0.0,0.0,1.293185,8.297935,-4.741677
1305031909309335040,0.0,0.0,0.0,1.293185,8.297935,-4.741677
1305031909312946176,0.0,0.0,0.0,1.293185,8.058456,-4.406407
1305031909313963776,0.0,0.0,0.0,1.293185,8.058456,-4.406407
1305031909317208064,0.0,0.0,0.0,1.053706,8.010560,-4.023241
1305031909318350080,0.0,0.0,0.0,1.053706,8.010560,-4.023241
1305031909321840896,0.0,0.0,0.0,0.957915,8.010560,-3.783762
1305031909322854912,0.0,0.0,0.0,0.957915,8.010560,-3.783762
1305031909324086784,0.0,0.0,0.0,0.957915,8.010560,-3.783762
1305031909325263872,0.0,0.0,0.0,0.957915,8.010560,-3.783762
1305031909328363776,0.0,0.0,0.0,0.862123,8.010560,-3.592179
1305031909329319936,0.0,0.0,0.0,0.862123,8.010560,-3.592179
1305031909332942848,0.0,0.0,0.0,0.862123,8.010560,-3.592179
1305031909333944064,0.0,0.0,0.0,0.862123,8.010560,-3.592179
1305031909337213952,0.0,0.0,0.0,0.862123,8.010560,-3.592179
1305031909338283008,0.0,0.0,0.0,0.862123,8.010560,-3.592179
1305031909341854976,0.0,0.0,0.0,0.862123,8.010560,-3.783762
1305031909342812928,0.0,0.0,0.0,0.862123,8.010560,-3.783762
1305031909344141056,0.0,0.0,0.0,0.862123,8.010560,-3.783762
1305031909345127168,0.0,0.0,0.0,0.862123,8.010560,-3.783762
1305031909348336896,0.0,0.0,0.0,0.862123,8.381752,-3.879554
1305031909349363200,0.0,0.0,0.0,0.862123,8.381752,-3.879554
1305031909352992000,0.0,0.0,0.0,0.526853,8.393726,-3.927450
1305031909354001152,0.0,0.0,0.0,0.526853,8.393726,-3.927450
1305031909357192960,0.0,0.0,0.0,0.682514,8.489518,-3.975345
1305031909358226944,0.0,0.0,0.0,0.682514,8.489518,-3.975345
1305031909359764992,0.0,0.0,0.0,0.682514,8.489518,-3.975345
1305031909360802048,0.0,0.0,0.0,0.682514,8.489518,-3.975345
1305031909364196096,0.0,0.0,0.0,0.862123,8.681100,-4.741677
1305031909365179904,0.0,0.0,0.0,0.862123,8.681100,-4.741677
1305031909368210944,0.0,0.0,0.0,1.053706,8.776892,-4.933260
1305031909369364992,0.0,0.0,0.0,1.053706,8.776892,-4.933260
1305031909372832000,0.0,0.0,0.0,1.257263,9.112162,-5.124843
1305031909373979136,0.0,0.0,0.0,1.257263,9.112162,-5.124843
1305031909377074944,0.0,0.0,0.0,1.544637,9.148084,-5.124843
1305031909378059008,0.0,0.0,0.0,1.544637,9.148084,-5.124843
1305031909379352064,0.0,0.0,0.0,1.544637,9.148084,-5.124843
1305031909380572160,0.0,0.0,0.0,1.544637,9.148084,-5.124843
1305031909384134912,0.0,0.0,0.0,1.616481,9.064266,-5.555904
1305031909385124096,0.0,0.0,0.0,1.616481,9.064266,-5.555904
1305031909388196864,0.0,0.0,0.0,1.640429,8.968475,-5.795383
1305031909389403136,0.0,0.0,0.0,1.640429,8.968475,-5.795383
1305031909392944128,0.0,0.0,0.0,1.293185,8.776892,-5.939070
1305031909393966848,0.0,0.0,0.0,1.293185,8.776892,-5.939070
1305031909397197056,0.0,0.0,0.0,1.245289,8.681100,-6.274340
1305031909398319872,0.0,0.0,0.0,1.245289,8.681100,-6.274340
1305031909401822976,0.0,0.0,0.0,1.257263,8.393726,-6.274340
1305031909402812928,0.0,0.0,0.0,1.257263,8.393726,-6.274340
1305031909404089856,0.0,0.0,0.0,1.257263,8.393726,-6.274340
1305031909405214976,0.0,0.0,0.0,1.257263,8.393726,-6.274340
1305031909408380928,0.0,0.0,0.0,0.957915,8.297935,-6.465923
1305031909409342976,0.0,0.0,0.0,0.957915,8.297935,-6.465923
1305031909413101056,0.0,0.0,0.0,0.957915,7.962665,-6.849089
1305031909414108928,0.0,0.0,0.0,0.957915,7.962665,-6.849089
1305031909417229056,0.0,0.0,0.0,0.862123,8.010560,-7.040672
1305031909418242048,0.0,0.0,0.0,0.862123,8.010560,-7.040672
1305031909421891840,0.0,0.0,0.0,0.862123,8.010560,-6.944880
1305031909422880768,0.0,0.0,0.0,0.862123,8.010560,-6.944880
1305031909424119040,0.0,0.0,0.0,0.862123,8.010560,-6.944880
1305031909425276160,0.0,0.0,0.0,0.862123,8.010560,-6.944880
1305031909428350976,0.0,0.0,0.0,0.478957,8.010560,-6.465923
1305031909429330176,0.0,0.0,0.0,0.478957,8.010560,-6.465923
1305031909432939008,0.0,0.0,0.0,0.443035,8.010560,-6.178549
1305031909433985024,0.0,0.0,0.0,0.443035,8.010560,-6.178549
1305031909437214976,0.0,0.0,0.0,0.191583,7.986612,-5.939070
1305031909438211840,0.0,0.0,0.0,0.191583,7.986612,-5.939070
1305031909441859840,0.0,0.0,0.0,0.119739,8.010560,-5.699591
1305031909442820096,0.0,0.0,0.0,0.119739,8.010560,-5.699591
1305031909444108032,0.0,0.0,0.0,0.119739,8.010560,-5.699591
1305031909445235968,0.0,0.0,0.0,0.119739,8.010560,-5.699591
1305031909448379904,0.0,0.0,0.0,0.287374,7.818977,-5.316426
1305031909449341952,0.0,0.0,0.0,0.287374,7.818977,-5.316426
1305031909453120000,0.0,0.0,0.0,0.287374,7.818977,-4.789573
1305031909454140928,0.0,0.0,0.0,0.287374,7.818977,-4.789573
1305031909457211136,0.0,0.0,0.0,0.119739,7.818977,-4.741677
1305031909458200832,0.0,0.0,0.0,0.119739,7.818977,-4.741677
1305031909461822976,0.0,0.0,0.0,0.478957,7.627394,-4.550094
1305031909462821120,0.0,0.0,0.0,0.478957,7.627394,-4.550094
1305031909464066048,0.0,0.0,0.0,0.478957,7.627394,-4.550094
1305031909465065984,0.0,0.0,0.0,0.478957,7.627394,-4.550094
1305031909468323072,0.0,0.0,0.0,0.478957,7.723186,-4.454303
1305031909469351936,0.0,0.0,0.0,0.478957,7.723186,-4.454303
1305031909472946944,0.0,0.0,0.0,0.478957,7.627394,-4.358511
1305031909474001920,0.0,0.0,0.0,0.478957,7.627394,-4.358511
1305031909477231872,0.0,0.0,0.0,0.526853,7.627394,-4.454303
1305031909478213120,0.0,0.0,0.0,0.526853,7.627394,-4.454303
1305031909481883904,0.0,0.0,0.0,0.574749,7.627394,-4.454303
1305031909482978048,0.0,0.0,0.0,0.574749,7.627394,-4.454303
1305031909484025088,0.0,0.0,0.0,0.574749,7.627394,-4.454303
1305031909487237888,0.0,0.0,0.0,0.490931,7.818977,-4.693781
1305031909488230912,0.0,0.0,0.0,0.490931,7.818977,-4.693781
1305031909491874048,0.0,0.0,0.0,0.478957,8.010560,-4.741677
1305031909492834048,0.0,0.0,0.0,0.478957,8.010560,-4.741677
1305031909494089984,0.0,0.0,0.0,0.478957,8.010560,-4.741677
1305031909495094016,0.0,0.0,0.0,0.478957,8.010560,-4.741677
1305031909498333952,0.0,0.0,0.0,0.574749,8.202143,-4.933260
1305031909499307008,0.0,0.0,0.0,0.574749,8.202143,-4.933260
1305031909502834176,0.0,0.0,0.0,0.574749,8.393726,-5.100895
1305031909503962112,0.0,0.0,0.0,0.574749,8.393726,-5.100895
1305031909507235072,0.0,0.0,0.0,0.478957,8.489518,-5.112869
1305031909508238080,0.0,0.0,0.0,0.478957,8.489518,-5.112869
1305031909511888896,0.0,0.0,0.0,0.466983,8.776892,-5.100895
1305031909512808192,0.0,0.0,0.0,0.466983,8.776892,-5.100895
1305031909513985024,0.0,0.0,0.0,0.466983,8.776892,-5.100895
1305031909517227776,0.0,0.0,0.0,0.107765,8.728996,-5.076947
1305031909518232064,0.0,0.0,0.0,0.107765,8.728996,-5.076947
1305031909521769984,0.0,0.0,0.0,0.083818,8.872683,-5.124843
1305031909522747136,0.0,0.0,0.0,0.083818,8.872683,-5.124843
1305031909524118016,0.0,0.0,0.0,0.083818,8.872683,-5.124843
1305031909525229824,0.0,0.0,0.0,0.083818,8.872683,-5.124843
1305031909528354048,0.0,0.0,0.0,0.059870,8.585309,-5.124843
1305031909529329920,0.0,0.0,0.0,0.059870,8.585309,-5.124843
1305031909532940032,0.0,0.0,0.0,-0.083818,8.297935,-4.933260
1305031909533943808,0.0,0.0,0.0,-0.083818,8.297935,-4.933260
1305031909537216000,0.0,0.0,0.0,-0.083818,8.022534,-4.550094
1305031909538230784,0.0,0.0,0.0,-0.083818,8.022534,-4.550094
1305031909541829120,0.0,0.0,0.0,-0.191583,7.818977,-4.262720
1305031909542881024,0.0,0.0,0.0,-0.191583,7.818977,-4.262720
1305031909544111872,0.0,0.0,0.0,-0.191583,7.818977,-4.262720
1305031909545086976,0.0,0.0,0.0,-0.191583,7.818977,-4.262720
1305031909548353792,0.0,0.0,0.0,-0.191583,7.818977,-3.879554
1305031909549490944,0.0,0.0,0.0,-0.191583,7.818977,-3.879554
1305031909553139968,0.0,0.0,0.0,0.011974,7.723186,-3.400597
1305031909554127104,0.0,0.0,0.0,0.011974,7.723186,-3.400597
1305031909557200896,0.0,0.0,0.0,0.107765,7.723186,-3.256909
1305031909558213120,0.0,0.0,0.0,0.107765,7.723186,-3.256909
1305031909561854976,0.0,0.0,0.0,0.107765,7.962665,-3.209014
1305031909562812928,0.0,0.0,0.0,0.107765,7.962665,-3.209014
1305031909564069120,0.0,0.0,0.0,0.107765,7.962665,-3.209014
1305031909565185024,0.0,0.0,0.0,0.107765,7.962665,-3.209014
1305031909568360192,0.0,0.0,0.0,0.119739,8.202143,-2.825848
1305031909569338112,0.0,0.0,0.0,0.119739,8.202143,-2.825848
1305031909572940032,0.0,0.0,0.0,0.119739,8.393726,-3.017431
1305031909573965056,0.0,0.0,0.0,0.119739,8.393726,-3.017431
1305031909577207040,0.0,0.0,0.0,0.287374,8.489518,-2.825848
1305031909578363904,0.0,0.0,0.0,0.287374,8.489518,-2.825848
1305031909582019072,0.0,0.0,0.0,0.466983,8.585309,-2.801900
1305031909582984960,0.0,0.0,0.0,0.466983,8.585309,-2.801900
1305031909584090112,0.0,0.0,0.0,0.466983,8.585309,-2.801900
1305031909585210112,0.0,0.0,0.0,0.466983,8.585309,-2.801900
1305031909588336896,0.0,0.0,0.0,0.478957,8.728996,-2.825848
1305031909589395968,0.0,0.0,0.0,0.478957,8.728996,-2.825848
1305031909592966912,0.0,0.0,0.0,0.443035,8.872683,-2.825848
1305031909593991936,0.0,0.0,0.0,0.443035,8.872683,-2.825848
1305031909597193984,0.0,0.0,0.0,0.395140,9.064266,-2.538474
1305031909598195200,0.0,0.0,0.0,0.395140,9.064266,-2.538474
1305031909601826048,0.0,0.0,0.0,0.395140,9.160058,-2.442682
1305031909602809856,0.0,0.0,0.0,0.395140,9.160058,-2.442682
1305031909604089088,0.0,0.0,0.0,0.395140,9.160058,-2.442682
1305031909605202944,0.0,0.0,0.0,0.395140,9.160058,-2.442682
1305031909608210944,0.0,0.0,0.0,0.143687,8.968475,-2.251099
1305031909609369088,0.0,0.0,0.0,0.143687,8.968475,-2.251099
1305031909612858112,0.0,0.0,0.0,0.191583,8.872683,-2.251099
1305031909613993984,0.0,0.0,0.0,0.191583,8.872683,-2.251099
1305031909617211136,0.0,0.0,0.0,0.107765,8.872683,-2.035568
1305031909618279936,0.0,0.0,0.0,0.107765,8.872683,-2.035568
1305031909619479040,0.0,0.0,0.0,0.107765,8.872683,-2.035568
1305031909620798976,0.0,0.0,0.0,0.107765,8.872683,-2.035568
1305031909624089088,0.0,0.0,0.0,0.143687,8.585309,-1.867933
1305031909625085952,0.0,0.0,0.0,0.143687,8.585309,-1.867933
1305031909628352000,0.0,0.0,0.0,0.191583,8.369778,-1.963725
1305031909629321216,0.0,0.0,0.0,0.191583,8.369778,-1.963725
1305031909633012992,0.0,0.0,0.0,0.287374,8.381752,-1.628455
1305031909633948928,0.0,0.0,0.0,0.287374,8.381752,-1.628455
1305031909637232896,0.0,0.0,0.0,0.395140,8.393726,-1.628455
1305031909638214144,0.0,0.0,0.0,0.395140,8.393726,-1.628455
1305031909639772928,0.0,0.0,0.0,0.395140,8.393726,-1.628455
1305031909640812032,0.0,0.0,0.0,0.395140,8.393726,-1.628455
1305031909644229888,0.0,0.0,0.0,0.682514,8.297935,-1.963725
1305031909645238016,0.0,0.0,0.0,0.682514,8.297935,-1.963725
1305031909648356864,0.0,0.0,0.0,0.682514,8.010560,-2.059516
1305031909649380096,0.0,0.0,0.0,0.682514,8.010560,-2.059516
1305031909652847104,0.0,0.0,0.0,0.778306,7.818977,-2.059516
1305031909653989120,0.0,0.0,0.0,0.778306,7.818977,-2.059516
1305031909657225984,0.0,0.0,0.0,0.862123,7.651342,-2.059516
1305031909658231040,0.0,0.0,0.0,0.862123,7.651342,-2.059516
1305031909659768064,0.0,0.0,0.0,0.862123,7.651342,-2.059516
1305031909660800000,0.0,0.0,0.0,0.862123,7.651342,-2.059516
1305031909664078080,0.0,0.0,0.0,0.526853,7.531603,-2.059516
1305031909665068032,0.0,0.0,0.0,0.526853,7.531603,-2.059516
1305031909668359168,0.0,0.0,0.0,0.395140,7.627394,-2.346891
1305031909669264128,0.0,0.0,0.0,0.395140,7.627394,-2.346891
1305031909672892928,0.0,0.0,0.0,0.287374,7.627394,-2.059516
1305031909674009088,0.0,0.0,0.0,0.287374,7.627394,-2.059516
1305031909677260032,0.0,0.0,0.0,0.287374,7.675290,-2.251099
1305031909678212864,0.0,0.0,0.0,0.287374,7.675290,-2.251099
1305031909681890048,0.0,0.0,0.0,0.191583,8.010560,-2.346891
1305031909682859008,0.0,0.0,0.0,0.191583,8.010560,-2.346891
1305031909684142080,0.0,0.0,0.0,0.191583,8.010560,-2.346891
1305031909685085184,0.0,0.0,0.0,0.191583,8.010560,-2.346891
1305031909688353024,0.0,0.0,0.0,0.287374,8.202143,-2.825848
1305031909689377024,0.0,0.0,0.0,0.287374,8.202143,-2.825848
1305031909692944896,0.0,0.0,0.0,0.287374,8.345830,-2.921639
1305031909693993984,0.0,0.0,0.0,0.287374,8.345830,-2.921639
1305031909697228032,0.0,0.0,0.0,0.107765,8.202143,-3.017431
1305031909698210048,0.0,0.0,0.0,0.107765,8.202143,-3.017431
1305031909701859840,0.0,0.0,0.0,0.095791,8.202143,-3.017431
1305031909702816000,0.0,0.0,0.0,0.095791,8.202143,-3.017431
1305031909704067840,0.0,0.0,0.0,0.095791,8.202143,-3.017431
1305031909705091072,0.0,0.0,0.0,0.095791,8.202143,-3.017431
1305031909708354048,0.0,0.0,0.0,0.059870,8.106352,-2.921639
1305031909709337088,0.0,0.0,0.0,0.059870,8.106352,-2.921639
1305031909712944896,0.0,0.0,0.0,0.095791,8.106352,-3.017431
1305031909713968896,0.0,0.0,0.0,0.095791,8.106352,-3.017431
1305031909717230080,0.0,0.0,0.0,0.011974,8.345830,-2.777952
1305031909718215936,0.0,0.0,0.0,0.011974,8.345830,-2.777952
1305031909721839872,0.0,0.0,0.0,0.107765,8.369778,-2.490578
1305031909722866176,0.0,0.0,0.0,0.107765,8.369778,-2.490578
1305031909724091904,0.0,0.0,0.0,0.107765,8.369778,-2.490578
1305031909725191168,0.0,0.0,0.0,0.107765,8.369778,-2.490578
1305031909728396032,0.0,0.0,0.0,0.107765,8.441622,-2.730056
1305031909729320960,0.0,0.0,0.0,0.107765,8.441622,-2.730056
1305031909733025024,0.0,0.0,0.0,0.107765,8.681100,-2.394786
1305031909734072064,0.0,0.0,0.0,0.107765,8.681100,-2.394786
1305031909737217024,0.0,0.0,0.0,0.107765,8.764918,-2.490578
1305031909738264064,0.0,0.0,0.0,0.107765,8.764918,-2.490578
1305031909741904128,0.0,0.0,0.0,0.287374,8.441622,-2.538474
1305031909742803968,0.0,0.0,0.0,0.287374,8.441622,-2.538474
1305031909744112896,0.0,0.0,0.0,0.287374,8.441622,-2.538474
1305031909745234944,0.0,0.0,0.0,0.287374,8.441622,-2.538474
1305031909748338944,0.0,0.0,0.0,0.107765,8.585309,-2.394786
1305031909749340928,0.0,0.0,0.0,0.107765,8.585309,-2.394786
1305031909752969984,0.0,0.0,0.0,0.143687,8.585309,-2.394786
1305031909754003968,0.0,0.0,0.0,0.143687,8.585309,-2.394786
1305031909757231104,0.0,0.0,0.0,0.287374,8.405700,-2.538474
1305031909758230016,0.0,0.0,0.0,0.287374,8.405700,-2.538474
1305031909759380224,0.0,0.0,0.0,0.287374,8.405700,-2.538474
1305031909760643840,0.0,0.0,0.0,0.287374,8.405700,-2.538474
1305031909763951104,0.0,0.0,0.0,0.191583,8.393726,-2.634265
1305031909765067008,0.0,0.0,0.0,0.191583,8.393726,-2.634265
1305031909768357120,0.0,0.0,0.0,0.143687,8.297935,-2.825848
1305031909769392896,0.0,0.0,0.0,0.143687,8.297935,-2.825848
1305031909772937984,0.0,0.0,0.0,0.119739,8.106352,-2.849796
1305031909774027008,0.0,0.0,0.0,0.119739,8.106352,-2.849796
1305031909777264128,0.0,0.0,0.0,0.191583,8.010560,-3.017431
1305031909778216960,0.0,0.0,0.0,0.191583,8.010560,-3.017431
1305031909781902080,0.0,0.0,0.0,0.095791,7.986612,-3.017431
1305031909782830848,0.0,0.0,0.0,0.095791,7.986612,-3.017431
1305031909783840768,0.0,0.0,0.0,0.095791,7.986612,-3.017431
1305031909787214080,0.0,0.0,0.0,0.107765,7.675290,-3.113222
1305031909788276992,0.0,0.0,0.0,0.107765,7.675290,-3.113222
1305031909791887104,0.0,0.0,0.0,0.191583,7.627394,-3.017431
1305031909792851968,0.0,0.0,0.0,0.191583,7.627394,-3.017431
1305031909794123776,0.0,0.0,0.0,0.191583,7.627394,-3.017431
1305031909795085056,0.0,0.0,0.0,0.191583,7.627394,-3.017431
1305031909798338048,0.0,0.0,0.0,0.191583,7.723186,-2.777952
1305031909799328000,0.0,0.0,0.0,0.191583,7.723186,-2.777952
1305031909802956032,0.0,0.0,0.0,0.191583,7.818977,-2.825848
1305031909803949056,0.0,0.0,0.0,0.191583,7.818977,-2.825848
1305031909807204096,0.0,0.0,0.0,0.107765,8.010560,-2.634265
1305031909808244992,0.0,0.0,0.0,0.107765,8.010560,-2.634265
1305031909811868928,0.0,0.0,0.0,0.287374,8.010560,-2.825848
1305031909812942080,0.0,0.0,0.0,0.287374,8.010560,-2.825848
1305031909814234112,0.0,0.0,0.0,0.287374,8.010560,-2.825848
1305031909815216128,0.0,0.0,0.0,0.287374,8.010560,-2.825848
1305031909818397952,0.0,0.0,0.0,0.287374,8.393726,-2.921639
1305031909819340032,0.0,0.0,0.0,0.287374,8.393726,-2.921639
1305031909822992128,0.0,0.0,0.0,0.287374,8.585309,-3.113222
1305031909823992064,0.0,0.0,0.0,0.287374,8.585309,-3.113222
1305031909827259136,0.0,0.0,0.0,0.287374,8.776892,-3.400597
1305031909828232960,0.0,0.0,0.0,0.287374,8.776892,-3.400597
1305031909831825920,0.0,0.0,0.0,0.443035,8.968475,-3.879554
1305031909832987136,0.0,0.0,0.0,0.443035,8.968475,-3.879554
1305031909834071040,0.0,0.0,0.0,0.443035,8.968475,-3.879554
1305031909835236096,0.0,0.0,0.0,0.443035,8.968475,-3.879554
1305031909838341120,0.0,0.0,0.0,0.287374,8.824788,-4.406407
1305031909839521024,0.0,0.0,0.0,0.287374,8.824788,-4.406407
1305031909843116032,0.0,0.0,0.0,0.083818,8.968475,-4.645885
1305031909844108032,0.0,0.0,0.0,0.083818,8.968475,-4.645885
1305031909847240960,0.0,0.0,0.0,0.059870,8.776892,-4.837468
1305031909848239872,0.0,0.0,0.0,0.059870,8.776892,-4.837468
1305031909851894016,0.0,0.0,0.0,0.011974,8.681100,-5.124843
1305031909852972032,0.0,0.0,0.0,0.011974,8.681100,-5.124843
1305031909854235904,0.0,0.0,0.0,0.011974,8.681100,-5.124843
1305031909855227904,0.0,0.0,0.0,0.011974,8.681100,-5.124843
1305031909858341888,0.0,0.0,0.0,0.011974,8.393726,-5.316426
1305031909859322112,0.0,0.0,0.0,0.011974,8.393726,-5.316426
1305031909862987008,0.0,0.0,0.0,0.083818,8.417674,-5.124843
1305031909863950080,0.0,0.0,0.0,0.083818,8.417674,-5.124843
1305031909867237120,0.0,0.0,0.0,0.011974,8.393726,-5.124843
1305031909868235008,0.0,0.0,0.0,0.011974,8.393726,-5.124843
1305031909871857920,0.0,0.0,0.0,0.107765,8.297935,-5.124843
1305031909872819968,0.0,0.0,0.0,0.107765,8.297935,-5.124843
1305031909874144000,0.0,0.0,0.0,0.107765,8.297935,-5.124843
1305031909875121152,0.0,0.0,0.0,0.107765,8.297935,-5.124843
1305031909878368000,0.0,0.0,0.0,0.095791,8.010560,-4.933260
1305031909879392000,0.0,0.0,0.0,0.095791,8.010560,-4.933260
1305031909882992896,0.0,0.0,0.0,0.107765,8.010560,-4.741677
1305031909883961856,0.0,0.0,0.0,0.107765,8.010560,-4.741677
1305031909887231232,0.0,0.0,0.0,0.107765,8.010560,-4.645885
1305031909888272896,0.0,0.0,0.0,0.107765,8.010560,-4.645885
1305031909891889152,0.0,0.0,0.0,0.466983,7.962665,-4.729703
1305031909892811008,0.0,0.0,0.0,0.466983,7.962665,-4.729703
1305031909894117120,0.0,0.0,0.0,0.466983,7.962665,-4.729703
1305031909895101952,0.0,0.0,0.0,0.466983,7.962665,-4.729703
1305031909898360064,0.0,0.0,0.0,0.287374,7.914769,-4.645885
1305031909899319040,0.0,0.0,0.0,0.287374,7.914769,-4.645885
1305031909902978048,0.0,0.0,0.0,0.478957,7.818977,-4.310615
1305031909903971840,0.0,0.0,0.0,0.478957,7.818977,-4.310615
1305031909907212032,0.0,0.0,0.0,0.526853,8.010560,-3.975345
1305031909908358144,0.0,0.0,0.0,0.526853,8.010560,-3.975345
1305031909911896064,0.0,0.0,0.0,0.502905,8.022534,-4.023241
1305031909912951040,0.0,0.0,0.0,0.502905,8.022534,-4.023241
1305031909914233856,0.0,0.0,0.0,0.502905,8.022534,-4.023241
1305031909915235072,0.0,0.0,0.0,0.502905,8.022534,-4.023241
1305031909918342144,0.0,0.0,0.0,0.490931,8.393726,-3.783762
1305031909919374080,0.0,0.0,0.0,0.490931,8.393726,-3.783762
1305031909922955008,0.0,0.0,0.0,0.502905,8.393726,-3.975345
1305031909923996928,0.0,0.0,0.0,0.502905,8.393726,-3.975345
1305031909927259904,0.0,0.0,0.0,0.490931,8.585309,-3.975345
1305031909928236032,0.0,0.0,0.0,0.490931,8.585309,-3.975345
1305031909931830784,0.0,0.0,0.0,0.502905,8.585309,-4.166928
1305031909932964096,0.0,0.0,0.0,0.502905,8.585309,-4.166928
1305031909934076160,0.0,0.0,0.0,0.502905,8.585309,-4.166928
1305031909935218176,0.0,0.0,0.0,0.502905,8.585309,-4.166928
1305031909938366976,0.0,0.0,0.0,0.478957,8.489518,-4.382459
1305031909939341056,0.0,0.0,0.0,0.478957,8.489518,-4.382459
1305031909942967040,0.0,0.0,0.0,0.682514,8.393726,-4.645885
1305031909944122112,0.0,0.0,0.0,0.682514,8.393726,-4.645885
1305031909947268864,0.0,0.0,0.0,0.490931,8.202143,-4.837468
1305031909948218112,0.0,0.0,0.0,0.490931,8.202143,-4.837468
1305031909951843072,0.0,0.0,0.0,0.574749,8.010560,-5.100895
1305031909952965120,0.0,0.0,0.0,0.574749,8.010560,-5.100895
1305031909954277888,0.0,0.0,0.0,0.574749,8.010560,-5.100895
1305031909955218944,0.0,0.0,0.0,0.574749,8.010560,-5.100895
1305031909958360064,0.0,0.0,0.0,0.526853,7.914769,-5.124843
1305031909959355136,0.0,0.0,0.0,0.526853,7.914769,-5.124843
1305031909962868992,0.0,0.0,0.0,0.478957,8.010560,-5.220634
1305031909963948032,0.0,0.0,0.0,0.478957,8.010560,-5.220634
1305031909967204096,0.0,0.0,0.0,0.574749,7.998586,-5.460113
1305031909968236032,0.0,0.0,0.0,0.574749,7.998586,-5.460113
1305031909971847168,0.0,0.0,0.0,0.478957,8.010560,-5.508009
1305031909972824064,0.0,0.0,0.0,0.478957,8.010560,-5.508009
1305031909974096128,0.0,0.0,0.0,0.478957,8.010560,-5.508009
1305031909975115008,0.0,0.0,0.0,0.478957,8.010560,-5.508009
1305031909978358016,0.0,0.0,0.0,0.478957,8.034508,-5.699591
1305031909979398912,0.0,0.0,0.0,0.478957,8.034508,-5.699591
1305031909982987008,0.0,0.0,0.0,0.478957,8.010560,-5.891174
1305031909984002048,0.0,0.0,0.0,0.478957,8.010560,-5.891174
1305031909987230976,0.0,0.0,0.0,0.478957,8.010560,-5.603800
1305031909988244992,0.0,0.0,0.0,0.478957,8.010560,-5.603800
1305031909991872000,0.0,0.0,0.0,0.478957,8.010560,-5.795383
1305031909992952064,0.0,0.0,0.0,0.478957,8.010560,-5.795383
1305031909994246912,0.0,0.0,0.0,0.478957,8.010560,-5.795383
1305031909995204096,0.0,0.0,0.0,0.478957,8.010560,-5.795383
1305031909998326016,0.0,0.0,0.0,0.443035,8.297935,-5.555904
1305031909999319040,0.0,0.0,0.0,0.443035,8.297935,-5.555904
1305031910002962176,0.0,0.0,0.0,0.478957,8.489518,-5.603800
1305031910003952128,0.0,0.0,0.0,0.478957,8.489518,-5.603800
1305031910007216896,0.0,0.0,0.0,0.490931,8.393726,-5.699591
1305031910008218880,0.0,0.0,0.0,0.490931,8.393726,-5.699591
1305031910011895040,0.0,0.0,0.0,0.478957,8.585309,-5.555904
1305031910012950784,0.0,0.0,0.0,0.478957,8.585309,-5.555904
1305031910014096128,0.0,0.0,0.0,0.478957,8.585309,-5.555904
1305031910015233024,0.0,0.0,0.0,0.478957,8.585309,-5.555904
1305031910018383872,0.0,0.0,0.0,0.095791,8.585309,-5.124843
1305031910019376128,0.0,0.0,0.0,0.095791,8.585309,-5.124843
1305031910022964992,0.0,0.0,0.0,0.095791,8.585309,-5.136817
1305031910024108800,0.0,0.0,0.0,0.095791,8.585309,-5.136817
1305031910027261952,0.0,0.0,0.0,0.095791,8.681100,-5.124843
1305031910028233984,0.0,0.0,0.0,0.095791,8.681100,-5.124843
1305031910031832832,0.0,0.0,0.0,0.107765,8.776892,-5.172738
1305031910032761088,0.0,0.0,0.0,0.107765,8.776892,-5.172738
1305031910033859072,0.0,0.0,0.0,0.107765,8.776892,-5.172738
1305031910037270016,0.0,0.0,0.0,0.107765,8.872683,-5.412217
1305031910038217984,0.0,0.0,0.0,0.107765,8.872683,-5.412217
1305031910041861120,0.0,0.0,0.0,0.107765,9.064266,-5.699591
1305031910042868992,0.0,0.0,0.0,0.107765,9.064266,-5.699591
1305031910044096000,0.0,0.0,0.0,0.107765,9.064266,-5.699591
1305031910045229824,0.0,0.0,0.0,0.107765,9.064266,-5.699591
1305031910048357888,0.0,0.0,0.0,0.395140,8.824788,-6.082757
1305031910049381120,0.0,0.0,0.0,0.395140,8.824788,-6.082757
1305031910052980992,0.0,0.0,0.0,0.443035,8.776892,-6.226444
1305031910053974016,0.0,0.0,0.0,0.443035,8.776892,-6.226444
1305031910057216768,0.0,0.0,0.0,0.478957,8.585309,-6.465923
1305031910058199808,0.0,0.0,0.0,0.478957,8.585309,-6.465923
1305031910062027008,0.0,0.0,0.0,0.478957,8.393726,-6.669480
1305031910063010816,0.0,0.0,0.0,0.478957,8.393726,-6.669480
1305031910064280064,0.0,0.0,0.0,0.478957,8.393726,-6.669480
1305031910065190144,0.0,0.0,0.0,0.478957,8.393726,-6.669480
1305031910068322816,0.0,0.0,0.0,0.682514,8.297935,-7.232255
1305031910069314048,0.0,0.0,0.0,0.682514,8.297935,-7.232255
1305031910073134848,0.0,0.0,0.0,0.682514,8.058456,-7.423838
1305031910074110976,0.0,0.0,0.0,0.682514,8.058456,-7.423838
1305031910077272832,0.0,0.0,0.0,0.682514,8.106352,-7.423838
1305031910078232064,0.0,0.0,0.0,0.682514,8.106352,-7.423838
1305031910081840896,0.0,0.0,0.0,0.478957,7.914769,-7.783056
1305031910082981120,0.0,0.0,0.0,0.478957,7.914769,-7.783056
1305031910084090112,0.0,0.0,0.0,0.478957,7.914769,-7.783056
1305031910085216000,0.0,0.0,0.0,0.478957,7.914769,-7.783056
1305031910088219904,0.0,0.0,0.0,0.287374,7.627394,-7.615421
1305031910089359872,0.0,0.0,0.0,0.287374,7.627394,-7.615421
1305031910092943872,0.0,0.0,0.0,0.143687,7.627394,-7.471733
1305031910093986048,0.0,0.0,0.0,0.143687,7.627394,-7.471733
1305031910097213952,0.0,0.0,0.0,0.119739,7.627394,-7.232255
1305031910098201088,0.0,0.0,0.0,0.119739,7.627394,-7.232255
1305031910101831936,0.0,0.0,0.0,0.143687,7.627394,-7.423838
1305031910102834944,0.0,0.0,0.0,0.143687,7.627394,-7.423838
1305031910104098048,0.0,0.0,0.0,0.143687,7.627394,-7.423838
1305031910105078016,0.0,0.0,0.0,0.143687,7.627394,-7.423838
1305031910108361984,0.0,0.0,0.0,0.191583,7.818977,-6.849089
1305031910109467136,0.0,0.0,0.0,0.191583,7.818977,-6.849089
1305031910112953856,0.0,0.0,0.0,0.107765,8.010560,-6.681454
1305031910114113024,0.0,0.0,0.0,0.107765,8.010560,-6.681454
1305031910117268992,0.0,0.0,0.0,0.119739,8.058456,-6.561715
1305031910118216960,0.0,0.0,0.0,0.119739,8.058456,-6.561715
1305031910121860864,0.0,0.0,0.0,0.095791,8.202143,-6.657506
1305031910122825984,0.0,0.0,0.0,0.095791,8.202143,-6.657506
1305031910124110848,0.0,0.0,0.0,0.095791,8.202143,-6.657506
1305031910125103104,0.0,0.0,0.0,0.095791,8.202143,-6.657506
1305031910128402944,0.0,0.0,0.0,0.287374,8.010560,-6.705402
1305031910129324032,0.0,0.0,0.0,0.287374,8.010560,-6.705402
1305031910132952832,0.0,0.0,0.0,0.287374,8.010560,-6.849089
1305031910133949952,0.0,0.0,0.0,0.287374,8.010560,-6.849089
1305031910137401088,0.0,0.0,0.0,0.395140,7.818977,-7.232255
1305031910138385152,0.0,0.0,0.0,0.395140,7.818977,-7.232255
1305031910141961984,0.0,0.0,0.0,0.443035,7.818977,-7.232255
1305031910142978048,0.0,0.0,0.0,0.443035,7.818977,-7.232255
1305031910144233984,0.0,0.0,0.0,0.443035,7.818977,-7.232255
1305031910145231872,0.0,0.0,0.0,0.443035,7.818977,-7.232255
1305031910148389120,0.0,0.0,0.0,0.478957,7.818977,-7.615421
1305031910149377024,0.0,0.0,0.0,0.478957,7.818977,-7.615421
1305031910152945920,0.0,0.0,0.0,0.478957,7.818977,-7.615421
1305031910154025984,0.0,0.0,0.0,0.478957,7.818977,-7.615421
1305031910157233920,0.0,0.0,0.0,0.502905,7.818977,-7.615421
1305031910158235136,0.0,0.0,0.0,0.502905,7.818977,-7.615421
1305031910161901056,0.0,0.0,0.0,0.682514,7.914769,-7.447785
1305031910162844928,0.0,0.0,0.0,0.682514,7.914769,-7.447785
1305031910164099840,0.0,0.0,0.0,0.682514,7.914769,-7.447785
1305031910165193984,0.0,0.0,0.0,0.682514,7.914769,-7.447785
1305031910168359168,0.0,0.0,0.0,0.574749,7.818977,-7.711212
1305031910169428992,0.0,0.0,0.0,0.574749,7.818977,-7.711212
1305031910172976128,0.0,0.0,0.0,0.502905,7.962665,-7.423838
1305031910173949952,0.0,0.0,0.0,0.502905,7.962665,-7.423838
1305031910177244928,0.0,0.0,0.0,0.526853,8.010560,-7.088568
1305031910178360064,0.0,0.0,0.0,0.526853,8.010560,-7.088568
1305031910181835008,0.0,0.0,0.0,0.478957,8.106352,-6.849089
1305031910182992896,0.0,0.0,0.0,0.478957,8.106352,-6.849089
1305031910184231168,0.0,0.0,0.0,0.478957,8.106352,-6.849089
1305031910185234944,0.0,0.0,0.0,0.478957,8.106352,-6.849089
1305031910188380928,0.0,0.0,0.0,0.287374,8.202143,-5.986966
1305031910189490944,0.0,0.0,0.0,0.287374,8.202143,-5.986966
1305031910193116928,0.0,0.0,0.0,-0.083818,8.202143,-5.508009
1305031910194121984,0.0,0.0,0.0,-0.083818,8.202143,-5.508009
1305031910197230080,0.0,0.0,0.0,-0.083818,8.393726,-5.124843
1305031910198322176,0.0,0.0,0.0,-0.083818,8.393726,-5.124843
1305031910201827072,0.0,0.0,0.0,0.095791,8.202143,-4.933260
1305031910202814208,0.0,0.0,0.0,0.095791,8.202143,-4.933260
1305031910204124928,0.0,0.0,0.0,0.095791,8.202143,-4.933260
1305031910205223936,0.0,0.0,0.0,0.095791,8.202143,-4.933260
1305031910208361984,0.0,0.0,0.0,0.107765,8.585309,-4.358511
1305031910209484032,0.0,0.0,0.0,0.107765,8.585309,-4.358511
1305031910213170176,0.0,0.0,0.0,0.191583,8.776892,-4.358511
1305031910214149120,0.0,0.0,0.0,0.191583,8.776892,-4.358511
1305031910217242112,0.0,0.0,0.0,0.443035,8.800840,-4.406407
1305031910218238976,0.0,0.0,0.0,0.443035,8.800840,-4.406407
1305031910221862144,0.0,0.0,0.0,0.478957,9.112162,-4.741677
1305031910222852864,0.0,0.0,0.0,0.478957,9.112162,-4.741677
1305031910224145920,0.0,0.0,0.0,0.478957,9.112162,-4.741677
1305031910225224960,0.0,0.0,0.0,0.478957,9.112162,-4.741677
1305031910228355840,0.0,0.0,0.0,0.478957,8.968475,-5.172738
1305031910229325056,0.0,0.0,0.0,0.478957,8.968475,-5.172738
1305031910233079040,0.0,0.0,0.0,0.478957,8.872683,-5.843279
1305031910234072064,0.0,0.0,0.0,0.478957,8.872683,-5.843279
1305031910237359104,0.0,0.0,0.0,0.443035,8.776892,-6.250392
1305031910238359040,0.0,0.0,0.0,0.443035,8.776892,-6.250392
1305031910241997056,0.0,0.0,0.0,0.574749,8.393726,-6.753297
1305031910243004928,0.0,0.0,0.0,0.574749,8.393726,-6.753297
1305031910244271872,0.0,0.0,0.0,0.574749,8.393726,-6.753297
1305031910245358848,0.0,0.0,0.0,0.574749,8.393726,-6.753297
1305031910248363008,0.0,0.0,0.0,0.682514,8.010560,-7.232255
1305031910249507072,0.0,0.0,0.0,0.682514,8.010560,-7.232255
1305031910252976896,0.0,0.0,0.0,0.682514,7.914769,-7.471733
1305031910254112000,0.0,0.0,0.0,0.682514,7.914769,-7.471733
1305031910257236992,0.0,0.0,0.0,0.478957,7.818977,-7.328046
1305031910258227968,0.0,0.0,0.0,0.478957,7.818977,-7.328046
1305031910261904128,0.0,0.0,0.0,0.395140,7.962665,-7.375942
1305031910262844928,0.0,0.0,0.0,0.395140,7.962665,-7.375942
1305031910264153088,0.0,0.0,0.0,0.395140,7.962665,-7.375942
1305031910265214976,0.0,0.0,0.0,0.395140,7.962665,-7.375942
1305031910268336128,0.0,0.0,0.0,0.119739,8.010560,-7.040672
1305031910269319936,0.0,0.0,0.0,0.119739,8.010560,-7.040672
1305031910272974848,0.0,0.0,0.0,0.191583,7.914769,-6.753297
1305031910273986048,0.0,0.0,0.0,0.191583,7.914769,-6.753297
1305031910277270016,0.0,0.0,0.0,0.287374,7.914769,-6.465923
1305031910278219008,0.0,0.0,0.0,0.287374,7.914769,-6.465923
1305031910281875968,0.0,0.0,0.0,0.287374,7.914769,-6.274340
1305031910282872832,0.0,0.0,0.0,0.287374,7.914769,-6.274340
1305031910284111872,0.0,0.0,0.0,0.287374,7.914769,-6.274340
1305031910285240832,0.0,0.0,0.0,0.287374,7.914769,-6.274340
1305031910288361984,0.0,0.0,0.0,0.478957,8.010560,-6.465923
1305031910289391104,0.0,0.0,0.0,0.478957,8.010560,-6.465923
1305031910292974080,0.0,0.0,0.0,0.682514,8.010560,-6.370132
1305031910294114048,0.0,0.0,0.0,0.682514,8.010560,-6.370132
1305031910297202944,0.0,0.0,0.0,0.862123,7.818977,-6.561715
1305031910298326016,0.0,0.0,0.0,0.862123,7.818977,-6.561715
1305031910301830912,0.0,0.0,0.0,0.862123,7.723186,-6.465923
1305031910302829056,0.0,0.0,0.0,0.862123,7.723186,-6.465923
1305031910304125952,0.0,0.0,0.0,0.862123,7.723186,-6.465923
1305031910305228032,0.0,0.0,0.0,0.862123,7.723186,-6.465923
1305031910308393984,0.0,0.0,0.0,0.886071,7.435812,-6.465923
1305031910309340928,0.0,0.0,0.0,0.886071,7.435812,-6.465923
1305031910312943104,0.0,0.0,0.0,0.957915,7.244229,-6.274340
1305031910314006016,0.0,0.0,0.0,0.957915,7.244229,-6.274340
1305031910317214976,0.0,0.0,0.0,0.910019,6.956854,-6.465923
1305031910318342912,0.0,0.0,0.0,0.910019,6.956854,-6.465923
1305031910322028032,0.0,0.0,0.0,0.874097,6.908959,-6.465923
1305031910322977024,0.0,0.0,0.0,0.874097,6.908959,-6.465923
1305031910324120064,0.0,0.0,0.0,0.874097,6.908959,-6.465923
1305031910325232896,0.0,0.0,0.0,0.874097,6.908959,-6.465923
1305031910328401152,0.0,0.0,0.0,0.862123,6.861063,-6.657506
1305031910329325056,0.0,0.0,0.0,0.862123,6.861063,-6.657506
1305031910332945152,0.0,0.0,0.0,0.910019,6.669480,-6.705402
1305031910333961984,0.0,0.0,0.0,0.910019,6.669480,-6.705402
1305031910337240832,0.0,0.0,0.0,1.053706,6.669480,-6.849089
1305031910338371072,0.0,0.0,0.0,1.053706,6.669480,-6.849089
1305031910342025984,0.0,0.0,0.0,1.161471,6.477897,-7.136463
1305031910343010048,0.0,0.0,0.0,1.161471,6.477897,-7.136463
1305031910344273920,0.0,0.0,0.0,1.161471,6.477897,-7.136463
1305031910345227008,0.0,0.0,0.0,1.161471,6.477897,-7.136463
1305031910348356864,0.0,0.0,0.0,1.053706,6.477897,-7.136463
1305031910349360896,0.0,0.0,0.0,1.053706,6.477897,-7.136463
1305031910352977152,0.0,0.0,0.0,1.245289,6.382106,-7.232255
1305031910353972992,0.0,0.0,0.0,1.245289,6.382106,-7.232255
1305031910357216000,0.0,0.0,0.0,1.053706,6.477897,-7.040672
1305031910358360064,0.0,0.0,0.0,1.053706,6.477897,-7.040672
1305031910361885184,0.0,0.0,0.0,1.053706,6.286314,-7.136463
1305031910363009024,0.0,0.0,0.0,1.053706,6.286314,-7.136463
1305031910364093184,0.0,0.0,0.0,1.053706,6.286314,-7.136463
1305031910365200128,0.0,0.0,0.0,1.053706,6.286314,-7.136463
1305031910368340992,0.0,0.0,0.0,1.053706,6.382106,-7.519629
1305031910369334016,0.0,0.0,0.0,1.053706,6.382106,-7.519629
1305031910372942848,0.0,0.0,0.0,1.245289,6.286314,-7.615421
1305031910373971968,0.0,0.0,0.0,1.245289,6.286314,-7.615421
1305031910377250048,0.0,0.0,0.0,1.257263,6.286314,-7.807003
1305031910378362880,0.0,0.0,0.0,1.257263,6.286314,-7.807003
1305031910382033152,0.0,0.0,0.0,1.257263,6.094731,-7.998586
1305031910382993920,0.0,0.0,0.0,1.257263,6.094731,-7.998586
1305031910384232960,0.0,0.0,0.0,1.257263,6.094731,-7.998586
1305031910385242112,0.0,0.0,0.0,1.257263,6.094731,-7.998586
1305031910388216064,0.0,0.0,0.0,1.053706,6.046835,-7.807003
1305031910389383168,0.0,0.0,0.0,1.053706,6.046835,-7.807003
1305031910392954112,0.0,0.0,0.0,1.053706,5.903148,-7.807003
1305031910393990144,0.0,0.0,0.0,1.053706,5.903148,-7.807003
1305031910397270016,0.0,0.0,0.0,0.874097,5.903148,-7.807003
1305031910398211072,0.0,0.0,0.0,0.874097,5.903148,-7.807003
1305031910399708928,0.0,0.0,0.0,0.874097,5.903148,-7.807003
1305031910402950912,0.0,0.0,0.0,0.862123,5.807357,-7.615421
1305031910403964160,0.0,0.0,0.0,0.862123,5.807357,-7.615421
1305031910407244032,0.0,0.0,0.0,0.850149,6.094731,-7.423838
1305031910408225024,0.0,0.0,0.0,0.850149,6.094731,-7.423838
1305031910411845888,0.0,0.0,0.0,0.910019,6.118679,-7.615421
1305031910412956928,0.0,0.0,0.0,0.910019,6.118679,-7.615421
1305031910414078976,0.0,0.0,0.0,0.910019,6.118679,-7.615421
1305031910415222784,0.0,0.0,0.0,0.910019,6.118679,-7.615421
1305031910418353152,0.0,0.0,0.0,1.053706,6.430001,-7.615421
1305031910419343872,0.0,0.0,0.0,1.053706,6.430001,-7.615421
1305031910422998016,0.0,0.0,0.0,1.053706,6.477897,-7.615421
1305031910423970048,0.0,0.0,0.0,1.053706,6.477897,-7.615421
1305031910427268096,0.0,0.0,0.0,1.053706,6.382106,-7.807003
1305031910428265216,0.0,0.0,0.0,1.053706,6.382106,-7.807003
1305031910431834880,0.0,0.0,0.0,1.161471,6.382106,-7.998586
1305031910433043968,0.0,0.0,0.0,1.161471,6.382106,-7.998586
1305031910434080000,0.0,0.0,0.0,1.161471,6.382106,-7.998586
1305031910435220992,0.0,0.0,0.0,1.161471,6.382106,-7.998586
1305031910438373120,0.0,0.0,0.0,1.053706,6.382106,-8.381752
1305031910439384064,0.0,0.0,0.0,1.053706,6.382106,-8.381752
1305031910443036160,0.0,0.0,0.0,0.957915,6.190523,-8.573335
1305031910444154112,0.0,0.0,0.0,0.957915,6.190523,-8.573335
1305031910447205120,0.0,0.0,0.0,0.826201,6.094731,-8.621231
1305031910448201984,0.0,0.0,0.0,0.826201,6.094731,-8.621231
1305031910451899136,0.0,0.0,0.0,0.682514,5.903148,-8.944527
1305031910452850176,0.0,0.0,0.0,0.682514,5.903148,-8.944527
1305031910454278912,0.0,0.0,0.0,0.682514,5.903148,-8.944527
1305031910455224064,0.0,0.0,0.0,0.682514,5.903148,-8.944527
1305031910458344960,0.0,0.0,0.0,0.682514,5.903148,-9.148084
1305031910459360000,0.0,0.0,0.0,0.682514,5.903148,-9.148084
1305031910462976000,0.0,0.0,0.0,0.778306,5.807357,-9.363615
1305031910463969024,0.0,0.0,0.0,0.778306,5.807357,-9.363615
1305031910467390976,0.0,0.0,0.0,0.682514,6.046835,-9.627041
1305031910468334848,0.0,0.0,0.0,0.682514,6.046835,-9.627041
1305031910469324032,0.0,0.0,0.0,0.682514,6.046835,-9.627041
1305031910472937216,0.0,0.0,0.0,0.778306,5.998940,-9.674937
1305031910473972992,0.0,0.0,0.0,0.778306,5.998940,-9.674937
1305031910477221888,0.0,0.0,0.0,0.850149,5.711565,-9.627041
1305031910478358016,0.0,0.0,0.0,0.850149,5.711565,-9.627041
1305031910481862912,0.0,0.0,0.0,0.826201,5.711565,-9.674937
1305031910482817792,0.0,0.0,0.0,0.826201,5.711565,-9.674937
1305031910484123904,0.0,0.0,0.0,0.826201,5.711565,-9.674937
1305031910485115904,0.0,0.0,0.0,0.826201,5.711565,-9.674937
1305031910488233984,0.0,0.0,0.0,0.778306,5.376295,-9.315719
1305031910489325056,0.0,0.0,0.0,0.778306,5.376295,-9.315719
1305031910492819968,0.0,0.0,0.0,0.682514,5.136817,-9.148084
1305031910493868032,0.0,0.0,0.0,0.682514,5.136817,-9.148084
1305031910497122048,0.0,0.0,0.0,0.682514,4.993129,-8.764918
1305031910498075136,0.0,0.0,0.0,0.682514,4.993129,-8.764918
1305031910499320064,0.0,0.0,0.0,0.682514,4.993129,-8.764918
1305031910500315904,0.0,0.0,0.0,0.682514,4.993129,-8.764918
1305031910503974912,0.0,0.0,0.0,0.682514,5.328400,-8.190169
1305031910505104128,0.0,0.0,0.0,0.682514,5.328400,-8.190169
1305031910508347904,0.0,0.0,0.0,0.778306,5.519982,-7.807003
1305031910509342976,0.0,0.0,0.0,0.778306,5.519982,-7.807003
1305031910512954112,0.0,0.0,0.0,0.862123,5.424191,-7.232255
1305031910513963008,0.0,0.0,0.0,0.862123,5.424191,-7.232255
1305031910517251072,0.0,0.0,0.0,0.682514,5.519982,-6.849089
1305031910518364928,0.0,0.0,0.0,0.682514,5.519982,-6.849089
1305031910521984000,0.0,0.0,0.0,0.826201,5.519982,-6.370132
1305031910522967040,0.0,0.0,0.0,0.826201,5.519982,-6.370132
1305031910524249088,0.0,0.0,0.0,0.826201,5.519982,-6.370132
1305031910525217024,0.0,0.0,0.0,0.826201,5.519982,-6.370132
1305031910528388864,0.0,0.0,0.0,0.862123,5.711565,-6.082757
1305031910529329920,0.0,0.0,0.0,0.862123,5.711565,-6.082757
1305031910533054208,0.0,0.0,0.0,0.862123,5.711565,-5.891174
1305031910534060032,0.0,0.0,0.0,0.862123,5.711565,-5.891174
1305031910537267968,0.0,0.0,0.0,0.886071,5.903148,-6.274340
1305031910538264064,0.0,0.0,0.0,0.886071,5.903148,-6.274340
1305031910541844992,0.0,0.0,0.0,1.053706,6.094731,-6.274340
1305031910542820864,0.0,0.0,0.0,1.053706,6.094731,-6.274340
1305031910544250112,0.0,0.0,0.0,1.053706,6.094731,-6.274340
1305031910545225984,0.0,0.0,0.0,1.053706,6.094731,-6.274340
1305031910548219904,0.0,0.0,0.0,1.053706,6.082757,-6.657506
1305031910549345024,0.0,0.0,0.0,1.053706,6.082757,-6.657506
1305031910552818176,0.0,0.0,0.0,1.161471,6.094731,-6.657506
1305031910554002944,0.0,0.0,0.0,1.161471,6.094731,-6.657506
1305031910557220864,0.0,0.0,0.0,1.257263,5.903148,-6.849089
1305031910558237952,0.0,0.0,0.0,1.257263,5.903148,-6.849089
1305031910559483904,0.0,0.0,0.0,1.257263,5.903148,-6.849089
1305031910560827136,0.0,0.0,0.0,1.257263,5.903148,-6.849089
1305031910564114944,0.0,0.0,0.0,1.161471,5.903148,-7.423838
1305031910565093120,0.0,0.0,0.0,1.161471,5.903148,-7.423838
1305031910568196096,0.0,0.0,0.0,1.257263,6.094731,-7.615421
1305031910569314048,0.0,0.0,0.0,1.257263,6.094731,-7.615421
1305031910572817920,0.0,0.0,0.0,1.257263,6.094731,-7.615421
1305031910573974016,0.0,0.0,0.0,1.257263,6.094731,-7.615421
1305031910577094912,0.0,0.0,0.0,1.257263,6.094731,-7.807003
1305031910578098176,0.0,0.0,0.0,1.257263,6.094731,-7.807003
1305031910579343104,0.0,0.0,0.0,1.257263,6.094731,-7.807003
1305031910580346112,0.0,0.0,0.0,1.257263,6.094731,-7.807003
1305031910583988992,0.0,0.0,0.0,1.053706,6.142627,-7.998586
1305031910585093120,0.0,0.0,0.0,1.053706,6.142627,-7.998586
1305031910588360192,0.0,0.0,0.0,0.874097,6.286314,-7.807003
1305031910589344000,0.0,0.0,0.0,0.874097,6.286314,-7.807003
1305031910592955136,0.0,0.0,0.0,0.862123,6.190523,-7.615421
1305031910593988864,0.0,0.0,0.0,0.862123,6.190523,-7.615421
1305031910597212160,0.0,0.0,0.0,0.526853,6.286314,-7.519629
1305031910598193920,0.0,0.0,0.0,0.526853,6.286314,-7.519629
1305031910601818112,0.0,0.0,0.0,0.502905,6.286314,-7.471733
1305031910602843136,0.0,0.0,0.0,0.502905,6.286314,-7.471733
1305031910604093952,0.0,0.0,0.0,0.502905,6.286314,-7.471733
1305031910605110784,0.0,0.0,0.0,0.502905,6.286314,-7.471733
1305031910608340992,0.0,0.0,0.0,0.526853,6.573688,-7.232255
1305031910609345024,0.0,0.0,0.0,0.526853,6.573688,-7.232255
1305031910612966912,0.0,0.0,0.0,0.682514,6.669480,-7.423838
1305031910613971968,0.0,0.0,0.0,0.682514,6.669480,-7.423838
1305031910617219840,0.0,0.0,0.0,0.682514,6.573688,-7.519629
1305031910618216960,0.0,0.0,0.0,0.682514,6.573688,-7.519629
1305031910621857024,0.0,0.0,0.0,0.826201,6.573688,-7.423838
1305031910622834944,0.0,0.0,0.0,0.826201,6.573688,-7.423838
1305031910624099072,0.0,0.0,0.0,0.826201,6.573688,-7.423838
1305031910625231872,0.0,0.0,0.0,0.826201,6.573688,-7.423838
1305031910628346880,0.0,0.0,0.0,0.862123,6.861063,-7.423838
1305031910629374976,0.0,0.0,0.0,0.862123,6.861063,-7.423838
1305031910632939008,0.0,0.0,0.0,0.862123,6.813167,-7.423838
1305031910633958144,0.0,0.0,0.0,0.862123,6.813167,-7.423838
1305031910637222144,0.0,0.0,0.0,0.910019,6.813167,-7.423838
1305031910638220032,0.0,0.0,0.0,0.910019,6.813167,-7.423838
1305031910641822976,0.0,0.0,0.0,0.957915,6.669480,-7.519629
1305031910642807040,0.0,0.0,0.0,0.957915,6.669480,-7.519629
1305031910644064000,0.0,0.0,0.0,0.957915,6.669480,-7.519629
1305031910645193984,0.0,0.0,0.0,0.957915,6.669480,-7.519629
1305031910648364032,0.0,0.0,0.0,0.862123,6.669480,-7.232255
1305031910649327104,0.0,0.0,0.0,0.862123,6.669480,-7.232255
1305031910652951040,0.0,0.0,0.0,0.682514,6.525793,-7.136463
1305031910653965056,0.0,0.0,0.0,0.682514,6.525793,-7.136463
1305031910657222912,0.0,0.0,0.0,0.778306,6.525793,-7.040672
1305031910658199040,0.0,0.0,0.0,0.778306,6.525793,-7.040672
1305031910661886976,0.0,0.0,0.0,0.862123,6.669480,-6.753297
1305031910662988032,0.0,0.0,0.0,0.862123,6.669480,-6.753297
1305031910664081152,0.0,0.0,0.0,0.862123,6.669480,-6.753297
1305031910665627904,0.0,0.0,0.0,0.862123,6.669480,-6.753297
1305031910668153088,0.0,0.0,0.0,0.778306,6.813167,-6.849089
1305031910669272832,0.0,0.0,0.0,0.778306,6.813167,-6.849089
1305031910672771840,0.0,0.0,0.0,0.682514,6.765271,-6.657506
1305031910673775872,0.0,0.0,0.0,0.682514,6.765271,-6.657506
1305031910677335040,0.0,0.0,0.0,0.826201,6.813167,-6.849089
1305031910678206976,0.0,0.0,0.0,0.826201,6.813167,-6.849089
1305031910679212032,0.0,0.0,0.0,0.826201,6.813167,-6.849089
1305031910682835200,0.0,0.0,0.0,0.574749,6.861063,-6.657506
1305031910683849984,0.0,0.0,0.0,0.574749,6.861063,-6.657506
1305031910687095040,0.0,0.0,0.0,0.862123,6.849089,-6.944880
1305031910688080128,0.0,0.0,0.0,0.862123,6.849089,-6.944880
1305031910689465088,0.0,0.0,0.0,0.862123,6.849089,-6.944880
1305031910690809856,0.0,0.0,0.0,0.862123,6.849089,-6.944880
1305031910693864192,0.0,0.0,0.0,0.850149,6.861063,-7.136463
1305031910697101056,0.0,0.0,0.0,0.862123,6.956854,-7.232255
1305031910698082816,0.0,0.0,0.0,0.862123,6.956854,-7.232255
1305031910699065088,0.0,0.0,0.0,0.862123,6.956854,-7.232255
1305031910702203904,0.0,0.0,0.0,0.682514,7.052646,-7.411864
1305031910703181056,0.0,0.0,0.0,0.682514,7.052646,-7.411864
1305031910706857984,0.0,0.0,0.0,0.682514,7.052646,-7.783056
1305031910708000000,0.0,0.0,0.0,0.682514,7.052646,-7.783056
1305031910709240832,0.0,0.0,0.0,0.682514,7.052646,-7.783056
1305031910710222848,0.0,0.0,0.0,0.682514,7.052646,-7.783056
1305031910713361152,0.0,0.0,0.0,0.862123,6.873037,-8.142274
1305031910714348032,0.0,0.0,0.0,0.862123,6.873037,-8.142274
1305031910718116096,0.0,0.0,0.0,0.478957,6.956854,-7.818977
1305031910719109120,0.0,0.0,0.0,0.478957,6.956854,-7.818977
1305031910722223104,0.0,0.0,0.0,0.502905,6.837115,-7.807003
1305031910723220224,0.0,0.0,0.0,0.502905,6.837115,-7.807003
1305031910726820864,0.0,0.0,0.0,0.478957,6.669480,-7.807003
1305031910727849984,0.0,0.0,0.0,0.478957,6.669480,-7.807003
1305031910729110016,0.0,0.0,0.0,0.478957,6.669480,-7.807003
1305031910730119936,0.0,0.0,0.0,0.478957,6.669480,-7.807003
1305031910733339904,0.0,0.0,0.0,0.287374,6.861063,-7.136463
1305031910734332928,0.0,0.0,0.0,0.287374,6.861063,-7.136463
1305031910737964032,0.0,0.0,0.0,0.095791,6.956854,-7.040672
1305031910739067136,0.0,0.0,0.0,0.095791,6.956854,-7.040672
1305031910742743040,0.0,0.0,0.0,0.191583,7.052646,-6.944880
1305031910743832064,0.0,0.0,0.0,0.191583,7.052646,-6.944880
1305031910744900864,0.0,0.0,0.0,0.191583,7.052646,-6.944880
1305031910749496064,0.0,0.0,0.0,0.095791,7.340020,-6.849089
1305031910751856128,0.0,0.0,0.0,0.191583,7.292124,-7.016724
1305031910752806912,0.0,0.0,0.0,0.191583,7.292124,-7.016724
1305031910753849088,0.0,0.0,0.0,0.191583,7.292124,-7.016724
1305031910757321984,0.0,0.0,0.0,0.107765,7.579499,-6.657506
1305031910758323968,0.0,0.0,0.0,0.107765,7.579499,-6.657506
1305031910761986048,0.0,0.0,0.0,0.143687,7.531603,-6.657506
1305031910762989056,0.0,0.0,0.0,0.143687,7.531603,-6.657506
1305031910764250880,0.0,0.0,0.0,0.143687,7.531603,-6.657506
1305031910765357056,0.0,0.0,0.0,0.143687,7.531603,-6.657506
1305031910768208128,0.0,0.0,0.0,0.143687,7.603447,-6.465923
1305031910769316864,0.0,0.0,0.0,0.143687,7.603447,-6.465923
1305031910772961024,0.0,0.0,0.0,0.107765,7.627394,-6.274340
1305031910773984000,0.0,0.0,0.0,0.107765,7.627394,-6.274340
1305031910777228032,0.0,0.0,0.0,0.287374,7.615421,-6.370132
1305031910779630848,0.0,0.0,0.0,0.287374,7.615421,-6.370132
1305031910781837824,0.0,0.0,0.0,0.478957,7.435812,-6.561715
1305031910782782976,0.0,0.0,0.0,0.478957,7.435812,-6.561715
1305031910784100096,0.0,0.0,0.0,0.478957,7.435812,-6.561715
1305031910785200128,0.0,0.0,0.0,0.478957,7.435812,-6.561715
1305031910788239872,0.0,0.0,0.0,0.778306,7.292124,-6.657506
1305031910789325056,0.0,0.0,0.0,0.778306,7.292124,-6.657506
1305031910792947968,0.0,0.0,0.0,0.862123,7.148437,-6.753297
1305031910793974016,0.0,0.0,0.0,0.862123,7.148437,-6.753297
1305031910797775104,0.0,0.0,0.0,0.957915,6.861063,-6.753297
1305031910798751232,0.0,0.0,0.0,0.957915,6.861063,-6.753297
1305031910799823104,0.0,0.0,0.0,0.957915,6.861063,-6.753297
1305031910803076864,0.0,0.0,0.0,1.053706,6.573688,-6.944880
1305031910804208896,0.0,0.0,0.0,1.053706,6.573688,-6.944880
1305031910807842048,0.0,0.0,0.0,0.957915,6.430001,-6.753297
1305031910809184000,0.0,0.0,0.0,0.957915,6.430001,-6.753297
1305031910812089088,0.0,0.0,0.0,0.957915,6.286314,-6.657506
1305031910813110016,0.0,0.0,0.0,0.957915,6.286314,-6.657506
1305031910814333952,0.0,0.0,0.0,0.957915,6.286314,-6.657506
1305031910815397888,0.0,0.0,0.0,0.957915,6.286314,-6.657506
1305031910818987008,0.0,0.0,0.0,0.957915,6.453949,-6.705402
1305031910819973888,0.0,0.0,0.0,0.957915,6.453949,-6.705402
1305031910823219968,0.0,0.0,0.0,0.910019,6.382106,-6.561715
1305031910824363008,0.0,0.0,0.0,0.910019,6.382106,-6.561715
1305031910828000000,0.0,0.0,0.0,1.053706,6.477897,-6.681454
1305031910828954880,0.0,0.0,0.0,1.053706,6.477897,-6.681454
1305031910832212992,0.0,0.0,0.0,0.862123,6.861063,-6.657506
1305031910833211904,0.0,0.0,0.0,0.862123,6.861063,-6.657506
1305031910837063936,0.0,0.0,0.0,0.862123,6.837115,-6.645532
1305031910837949952,0.0,0.0,0.0,0.862123,6.837115,-6.645532
1305031910839073792,0.0,0.0,0.0,0.862123,6.837115,-6.645532
1305031910840199936,0.0,0.0,0.0,0.862123,6.837115,-6.645532
1305031910843350784,0.0,0.0,0.0,0.682514,6.885011,-6.657506
1305031910844357888,0.0,0.0,0.0,0.682514,6.885011,-6.657506
1305031910847841024,0.0,0.0,0.0,0.478957,7.052646,-6.657506
1305031910848994048,0.0,0.0,0.0,0.478957,7.052646,-6.657506
1305031910852264960,0.0,0.0,0.0,0.478957,7.220281,-6.657506
1305031910853224960,0.0,0.0,0.0,0.478957,7.220281,-6.657506
1305031910856864000,0.0,0.0,0.0,0.478957,7.244229,-6.657506
1305031910857851904,0.0,0.0,0.0,0.478957,7.244229,-6.657506
1305031910859121920,0.0,0.0,0.0,0.478957,7.244229,-6.657506
1305031910860100864,0.0,0.0,0.0,0.478957,7.244229,-6.657506
1305031910863373056,0.0,0.0,0.0,0.778306,7.244229,-6.370132
1305031910864368896,0.0,0.0,0.0,0.778306,7.244229,-6.370132
1305031910867963136,0.0,0.0,0.0,0.682514,7.340020,-6.082757
1305031910869218048,0.0,0.0,0.0,0.682514,7.340020,-6.082757
1305031910872219136,0.0,0.0,0.0,0.862123,7.340020,-6.178549
1305031910873368064,0.0,0.0,0.0,0.862123,7.340020,-6.178549
1305031910876886016,0.0,0.0,0.0,1.053706,7.435812,-6.274340
1305031910878043904,0.0,0.0,0.0,1.053706,7.435812,-6.274340
1305031910879089152,0.0,0.0,0.0,1.053706,7.435812,-6.274340
1305031910880083200,0.0,0.0,0.0,1.053706,7.435812,-6.274340
1305031910883225088,0.0,0.0,0.0,0.957915,7.340020,-6.226444
1305031910884363776,0.0,0.0,0.0,0.957915,7.340020,-6.226444
1305031910887852032,0.0,0.0,0.0,1.053706,7.244229,-6.082757
1305031910888976128,0.0,0.0,0.0,1.053706,7.244229,-6.082757
1305031910892241920,0.0,0.0,0.0,1.161471,7.244229,-6.226444
1305031910893238016,0.0,0.0,0.0,1.161471,7.244229,-6.226444
1305031910896900864,0.0,0.0,0.0,1.257263,7.268176,-6.322236
1305031910897839104,0.0,0.0,0.0,1.257263,7.268176,-6.322236
1305031910899069184,0.0,0.0,0.0,1.257263,7.268176,-6.322236
1305031910900075008,0.0,0.0,0.0,1.257263,7.268176,-6.322236
1305031910903328768,0.0,0.0,0.0,1.592533,7.220281,-6.657506
1305031910904339200,0.0,0.0,0.0,1.592533,7.220281,-6.657506
1305031910907987968,0.0,0.0,0.0,1.640429,7.292124,-6.944880
1305031910909112832,0.0,0.0,0.0,1.640429,7.292124,-6.944880
1305031910912239104,0.0,0.0,0.0,1.640429,7.244229,-7.040672
1305031910913213952,0.0,0.0,0.0,1.640429,7.244229,-7.040672
1305031910917083904,0.0,0.0,0.0,1.640429,7.052646,-7.040672
1305031910918078976,0.0,0.0,0.0,1.640429,7.052646,-7.040672
1305031910919244032,0.0,0.0,0.0,1.640429,7.052646,-7.040672
1305031910922235904,0.0,0.0,0.0,1.592533,6.956854,-7.423838
1305031910923321088,0.0,0.0,0.0,1.592533,6.956854,-7.423838
1305031910926889984,0.0,0.0,0.0,1.269237,6.669480,-7.423838
1305031910928000000,0.0,0.0,0.0,1.269237,6.669480,-7.423838
1305031910929195776,0.0,0.0,0.0,1.269237,6.669480,-7.423838
1305031910930209024,0.0,0.0,0.0,1.269237,6.669480,-7.423838
1305031910933336064,0.0,0.0,0.0,1.053706,6.477897,-7.435812
1305031910934318080,0.0,0.0,0.0,1.053706,6.477897,-7.435812
1305031910937963008,0.0,0.0,0.0,0.862123,6.286314,-7.328046
1305031910938942976,0.0,0.0,0.0,0.862123,6.286314,-7.328046
1305031910942260992,0.0,0.0,0.0,0.850149,6.190523,-7.040672
1305031910943720960,0.0,0.0,0.0,0.850149,6.190523,-7.040672
1305031910945235968,0.0,0.0,0.0,0.850149,6.190523,-7.040672
1305031910948090112,0.0,0.0,0.0,0.850149,6.477897,-6.849089
1305031910949204992,0.0,0.0,0.0,0.850149,6.477897,-6.849089
1305031910952226048,0.0,0.0,0.0,0.862123,6.477897,-6.944880
1305031910953336064,0.0,0.0,0.0,0.862123,6.477897,-6.944880
1305031910954350848,0.0,0.0,0.0,0.862123,6.477897,-6.944880
1305031910957979904,0.0,0.0,0.0,1.053706,6.669480,-6.753297
1305031910959111936,0.0,0.0,0.0,1.053706,6.669480,-6.753297
